subj_idx,date,trialnum,stim,response,rt
172,2017-11-11,1,2,1,25.99
172,2017-11-11,2,2,0,65.32
172,2017-11-11,3,1,1,53.16
172,2017-11-11,4,1,1,0.85
172,2017-11-11,5,2,0,49.3
172,2017-11-11,6,2,0,0.12
172,2017-11-11,7,2,1,111.83
172,2017-11-11,9,2,1,64.11
172,2017-11-11,10,1,0,139.4
172,2017-11-11,11,2,1,67.85
172,2017-11-11,13,1,0,83.41
172,2017-11-11,15,2,1,140.68
172,2017-11-11,16,1,0,80.68
172,2017-11-11,17,2,1,70.18
172,2017-11-11,18,1,0,43.99
172,2017-11-11,19,2,1,49.71
172,2017-11-11,21,2,1,41.81
172,2017-11-11,22,1,1,17.95
172,2017-11-11,23,1,1,7.26
172,2017-11-11,24,2,0,123.43
172,2017-11-11,25,1,1,9.22
172,2017-11-11,26,2,0,11.3
172,2017-11-11,27,2,1,1.87
172,2017-11-11,28,1,1,11.35
172,2017-11-11,29,1,1,0.69
172,2017-11-11,30,1,1,10.72
172,2017-11-11,31,1,1,1.54
172,2017-11-11,32,1,1,7.63
172,2017-11-11,33,1,1,2.06
172,2017-11-11,34,1,1,2.12
172,2017-11-11,35,2,1,25
172,2017-11-11,36,1,1,2.08
172,2017-11-11,37,2,0,187.95
172,2017-11-11,38,2,1,48.78
172,2017-11-11,39,2,0,13.06
172,2017-11-11,40,2,1,6.98
172,2017-11-11,41,1,1,2.21
172,2017-11-11,42,1,1,5.76
172,2017-11-11,43,2,0,30.86
172,2017-11-11,44,2,1,45.5
172,2017-11-11,45,1,1,6.21
172,2017-11-11,49,1,1,12.76
172,2017-11-11,52,1,1,3.43
172,2017-11-12,1,2,1,14.96
172,2017-11-12,2,2,1,6.21
172,2017-11-12,3,1,0,47.49
172,2017-11-12,4,1,1,3.78
172,2017-11-12,5,2,1,23.64
172,2017-11-12,6,2,0,29.7
172,2017-11-12,7,2,1,4.83
172,2017-11-12,8,1,0,27.73
172,2017-11-12,9,1,1,50.32
172,2017-11-12,10,2,0,25.28
172,2017-11-12,11,2,1,55.63
172,2017-11-12,13,1,1,53.21
172,2017-11-12,14,2,1,11.19
172,2017-11-12,15,1,0,15.38
172,2017-11-12,16,1,1,14.45
172,2017-11-12,17,2,0,17.29
172,2017-11-12,18,1,1,3.14
172,2017-11-12,19,2,0,14.41
172,2017-11-12,20,1,1,3.43
172,2017-11-12,21,2,1,3.43
172,2017-11-12,22,2,1,0.4
172,2017-11-12,23,1,1,0.63
172,2017-11-12,24,1,1,3.43
172,2017-11-12,25,2,0,36.91
172,2017-11-12,26,1,0,16.76
172,2017-11-12,27,1,1,88.43
172,2017-11-12,28,1,0,39.22
172,2017-11-12,29,2,1,4.65
172,2017-11-12,32,2,1,88.02
172,2017-11-12,33,1,1,4.37
172,2017-11-12,34,1,1,12.17
172,2017-11-12,35,2,1,10.66
172,2017-11-12,36,1,1,1.4
172,2017-11-12,37,2,0,26.07
172,2017-11-12,38,1,1,3.73
172,2017-11-12,39,2,0,16.74
172,2017-11-12,40,1,1,4.58
172,2017-11-12,41,2,0,18.23
172,2017-11-12,42,2,1,45.37
172,2017-11-12,43,1,1,0.46
172,2017-11-12,44,2,0,14.68
172,2017-11-12,45,2,1,23.67
172,2017-11-12,47,2,0,58.33
172,2017-11-12,48,1,1,4.71
172,2017-11-12,49,1,1,28.67
172,2017-11-12,52,2,0,24.89
172,2017-11-13,1,2,1,7.19
172,2017-11-13,6,2,1,177.12
172,2017-11-13,11,2,1,192.35
172,2017-11-13,16,2,1,182.51
172,2017-11-13,17,2,1,19.55
172,2017-11-13,19,2,1,46.72
172,2017-11-13,20,2,1,5.19
172,2017-11-13,21,1,1,7.22
172,2017-11-13,22,2,1,22.92
172,2017-11-13,23,1,1,16.4
172,2017-11-13,24,2,1,1.74
172,2017-11-13,25,2,0,18.05
172,2017-11-13,26,2,1,0.1
172,2017-11-13,27,2,1,10.89
172,2017-11-13,28,2,1,10.31
172,2017-11-13,29,1,1,6.98
172,2017-11-13,30,2,0,20.19
172,2017-11-13,31,2,1,3.85
172,2017-11-13,32,2,1,29.88
172,2017-11-13,34,1,1,41.41
172,2017-11-13,35,2,0,94.32
172,2017-11-13,36,1,1,45.07
172,2017-11-13,37,1,1,5.89
172,2017-11-13,38,1,1,3.74
172,2017-11-13,39,1,1,16.27
172,2017-11-13,40,1,1,0.8
172,2017-11-13,43,1,1,13.62
172,2017-11-13,45,1,1,0.56
172,2017-11-13,48,1,1,6.12
172,2017-11-13,49,1,1,3.53
172,2017-11-13,50,1,1,7.78
172,2017-11-14,1,1,0,18.28
172,2017-11-14,2,2,1,43.91
172,2017-11-14,3,2,1,15.57
172,2017-11-14,4,1,0,47.28
172,2017-11-14,5,2,1,62.13
172,2017-11-14,6,2,1,13.81
172,2017-11-14,9,1,0,110.67
172,2017-11-14,10,2,1,29.7
172,2017-11-14,11,2,1,29.09
172,2017-11-14,12,2,1,3.7
172,2017-11-14,13,2,1,4.65
172,2017-11-14,14,2,1,10.12
172,2017-11-14,15,2,1,8.58
172,2017-11-14,16,1,0,28.51
172,2017-11-14,17,2,1,9.01
172,2017-11-14,18,1,1,2.37
172,2017-11-14,19,2,1,12.3
172,2017-11-14,20,2,1,7.4
172,2017-11-14,21,2,1,13.4
172,2017-11-14,22,2,1,6.95
172,2017-11-14,23,2,1,7.41
172,2017-11-14,24,2,1,10.86
172,2017-11-14,25,1,1,9.56
172,2017-11-14,26,1,1,8.35
172,2017-11-14,27,2,0,23.4
172,2017-11-14,28,1,1,7.98
172,2017-11-14,29,1,1,2.25
172,2017-11-14,30,2,0,13.53
172,2017-11-14,31,2,1,0.03
172,2017-11-14,32,2,1,4.54
172,2017-11-14,33,2,1,14.93
172,2017-11-14,35,1,0,77
172,2017-11-14,36,2,1,108.05
172,2017-11-14,37,2,1,0.67
172,2017-11-14,38,1,1,1.95
172,2017-11-14,39,2,0,81.71
172,2017-11-14,40,1,1,15.47
172,2017-11-14,41,1,1,0.4
172,2017-11-14,44,1,1,18
172,2017-11-14,45,1,1,3.9
172,2017-11-14,46,1,0,27.18
172,2017-11-14,50,1,1,27.1
172,2017-11-15,1,2,1,9.26
172,2017-11-15,2,2,1,5.42
172,2017-11-15,3,2,1,0.74
172,2017-11-15,4,1,1,10.92
172,2017-11-15,5,2,1,12.44
172,2017-11-15,6,2,1,7.13
172,2017-11-15,7,2,0,4.25
172,2017-11-15,8,2,1,6.91
172,2017-11-15,9,2,1,8.58
172,2017-11-15,10,1,1,0.36
172,2017-11-15,11,2,0,29.93
172,2017-11-15,12,2,1,22.94
172,2017-11-15,13,1,1,5.67
172,2017-11-15,14,1,1,12.14
172,2017-11-15,15,2,1,8.46
172,2017-11-15,16,2,1,0.12
172,2017-11-15,17,2,0,8.79
172,2017-11-15,18,1,1,6.27
172,2017-11-15,19,1,1,8.89
172,2017-11-15,20,2,0,9.95
172,2017-11-15,21,1,1,19.8
172,2017-11-15,22,1,0,23.5
172,2017-11-15,24,2,1,65.24
172,2017-11-15,25,1,0,6.56
172,2017-11-15,26,1,1,9.81
172,2017-11-15,27,2,1,7.39
172,2017-11-15,28,1,0,15.51
172,2017-11-15,29,1,1,1.79
172,2017-11-15,30,2,1,18.28
172,2017-11-15,31,2,1,14.94
172,2017-11-15,32,2,1,4.71
172,2017-11-15,33,2,1,28.03
172,2017-11-15,34,2,1,7.93
172,2017-11-15,35,1,1,27.09
172,2017-11-15,36,1,1,11.39
172,2017-11-15,37,1,1,23.11
172,2017-11-15,38,1,1,9.99
172,2017-11-15,39,2,0,18.43
172,2017-11-15,40,1,1,10.12
172,2017-11-15,41,1,1,3.63
172,2017-11-15,42,2,0,26.44
172,2017-11-15,43,2,1,24.72
172,2017-11-15,49,1,1,51.02
172,2017-11-15,50,1,1,8.44
172,2017-11-16,1,2,1,4.78
172,2017-11-16,2,1,0,21.56
172,2017-11-16,3,1,0,28.97
172,2017-11-16,5,1,0,64.7
172,2017-11-16,6,2,1,181.27
172,2017-11-16,7,1,0,26.13
172,2017-11-16,8,1,1,21.13
172,2017-11-16,9,1,1,16.66
172,2017-11-16,10,1,1,8.71
172,2017-11-16,11,2,1,4.07
172,2017-11-16,12,1,1,2.04
172,2017-11-16,14,1,1,41.47
172,2017-11-16,15,2,1,6.5
172,2017-11-16,16,1,1,8.59
172,2017-11-16,17,2,1,11.8
172,2017-11-16,18,2,1,3.15
172,2017-11-16,19,2,1,4.16
172,2017-11-16,20,1,0,242.36
172,2017-11-16,21,2,1,3.23
172,2017-11-16,22,1,1,0.58
172,2017-11-16,23,1,1,25.75
172,2017-11-16,24,1,1,5.84
172,2017-11-16,25,1,1,9.24
172,2017-11-16,26,2,0,29.53
172,2017-11-16,28,1,1,48.69
172,2017-11-16,29,2,1,9.55
172,2017-11-16,30,1,0,18.16
172,2017-11-16,31,1,1,13.38
172,2017-11-16,32,1,1,23.97
172,2017-11-16,33,2,1,6.04
172,2017-11-16,34,1,1,22.74
172,2017-11-16,35,2,1,12.38
172,2017-11-16,36,1,1,20.01
172,2017-11-16,37,2,0,5.96
172,2017-11-16,40,2,1,102.16
172,2017-11-16,41,2,1,13.75
172,2017-11-16,42,1,1,16.79
172,2017-11-16,43,2,1,7.65
172,2017-11-16,44,2,1,3.96
172,2017-11-16,46,1,1,44.83
172,2017-11-16,47,2,0,7.71
172,2017-11-16,49,1,1,48.1
172,2017-11-17,1,1,0,4.85
172,2017-11-17,2,2,1,47.38
172,2017-11-17,3,2,1,0.84
172,2017-11-17,4,2,1,2.43
172,2017-11-17,5,1,0,23.87
172,2017-11-17,6,1,1,5.93
172,2017-11-17,7,1,0,22.16
172,2017-11-17,8,1,1,44.42
172,2017-11-17,9,2,1,5.62
172,2017-11-17,10,1,0,44.43
172,2017-11-17,11,1,1,52.48
172,2017-11-17,12,1,1,2.4
172,2017-11-17,13,2,1,17.12
172,2017-11-17,14,2,1,3.68
172,2017-11-17,15,1,0,24.18
172,2017-11-17,16,2,1,5.77
172,2017-11-17,17,2,1,5.9
172,2017-11-17,18,1,0,3.53
172,2017-11-17,19,2,1,5.49
172,2017-11-17,20,2,1,11.91
172,2017-11-17,21,2,1,4.19
172,2017-11-17,22,1,1,6.09
172,2017-11-17,23,1,0,8.01
172,2017-11-17,24,2,1,2
172,2017-11-17,25,2,0,7.56
172,2017-11-17,26,1,1,3.82
172,2017-11-17,27,1,0,14.47
172,2017-11-17,28,1,1,3.08
172,2017-11-17,29,2,0,10.12
172,2017-11-17,30,2,1,7.08
172,2017-11-17,31,2,1,0.9
172,2017-11-17,32,2,1,6.76
172,2017-11-17,33,2,1,0.08
172,2017-11-17,34,1,0,12.89
172,2017-11-17,36,2,1,43.28
172,2017-11-17,37,2,0,14.75
172,2017-11-17,38,1,1,5.61
172,2017-11-17,39,1,1,6.66
172,2017-11-17,41,2,1,45.73
172,2017-11-17,42,1,1,4.3
172,2017-11-17,43,2,1,13.66
172,2017-11-17,46,1,1,90.17
172,2017-11-17,47,1,0,243.42
172,2017-11-17,48,2,1,67.36
172,2017-11-17,49,1,0,6.7
172,2017-11-17,52,1,1,12.76
172,2017-11-20,1,2,1,5.92
172,2017-11-20,2,2,1,10.33
172,2017-11-20,3,1,0,44.29
172,2017-11-20,5,1,1,59.87
172,2017-11-20,6,2,1,4.48
172,2017-11-20,7,2,1,3.88
172,2017-11-20,8,2,1,3.51
172,2017-11-20,9,2,1,3.69
172,2017-11-20,10,1,0,115.43
172,2017-11-20,11,2,1,29.25
172,2017-11-20,12,2,1,3.86
172,2017-11-20,14,1,1,28.23
172,2017-11-20,15,2,1,13.47
172,2017-11-20,16,2,1,5.44
172,2017-11-20,17,2,1,6.48
172,2017-11-20,20,1,1,64.76
172,2017-11-20,22,2,0,34.62
172,2017-11-20,23,1,1,3.85
172,2017-11-20,25,1,0,37.96
172,2017-11-20,26,1,1,10.47
172,2017-11-20,28,1,1,31.04
172,2017-11-20,29,2,0,75.92
172,2017-11-20,30,2,0,1.74
172,2017-11-20,31,1,1,56.64
172,2017-11-20,33,1,1,32
172,2017-11-20,34,2,0,68.44
172,2017-11-20,35,2,0,9
172,2017-11-20,36,1,1,62.23
172,2017-11-20,37,1,1,9.79
172,2017-11-20,38,2,0,55.24
172,2017-11-20,39,2,1,6.32
172,2017-11-20,40,2,1,8.62
172,2017-11-20,42,2,0,30.86
172,2017-11-20,43,1,1,66.73
172,2017-11-20,47,1,0,38.88
172,2017-11-20,48,1,0,3.5
172,2017-11-20,51,1,1,60.77
172,2017-11-21,2,2,1,29.48
172,2017-11-21,3,2,1,7.58
172,2017-11-21,4,1,0,62.35
172,2017-11-21,5,1,0,11.31
172,2017-11-21,6,1,1,56.79
172,2017-11-21,7,2,1,5.29
172,2017-11-21,8,2,1,3.05
172,2017-11-21,9,2,1,5.83
172,2017-11-21,11,2,1,30.33
172,2017-11-21,12,1,1,2.35
172,2017-11-21,13,2,1,9.76
172,2017-11-21,14,2,1,7.53
172,2017-11-21,15,2,1,6.06
172,2017-11-21,16,2,1,10.68
172,2017-11-21,17,1,1,3.61
172,2017-11-21,18,1,1,4.11
172,2017-11-21,19,2,1,6.75
172,2017-11-21,20,1,1,0.48
172,2017-11-21,21,2,0,8.84
172,2017-11-21,22,2,0,3.66
172,2017-11-21,23,2,1,31.01
172,2017-11-21,24,1,1,9.82
172,2017-11-21,25,1,0,48.92
172,2017-11-21,26,2,1,31.36
172,2017-11-21,27,1,1,5.5
172,2017-11-21,28,1,1,0.49
172,2017-11-21,30,1,1,29.71
172,2017-11-21,31,2,1,8.53
172,2017-11-21,32,2,1,5.57
172,2017-11-21,33,2,0,6.94
172,2017-11-21,34,2,1,2.33
172,2017-11-21,35,2,1,4.09
172,2017-11-21,36,2,0,7.54
172,2017-11-21,37,2,1,1.57
172,2017-11-21,38,2,1,6.99
172,2017-11-21,39,1,1,2.96
172,2017-11-21,41,2,1,31.14
172,2017-11-21,43,1,0,36.24
172,2017-11-21,48,1,1,28.78
172,2017-11-22,1,2,1,6.77
172,2017-11-22,2,2,1,2.19
172,2017-11-22,3,1,0,32.36
172,2017-11-22,5,2,1,57.41
172,2017-11-22,7,2,1,29.27
172,2017-11-22,8,1,1,7.42
172,2017-11-22,9,2,1,13.83
172,2017-11-22,10,2,0,5.41
172,2017-11-22,11,1,1,0.69
172,2017-11-22,12,2,1,7.37
172,2017-11-22,13,2,1,5.6
172,2017-11-22,14,2,0,4.43
172,2017-11-22,16,1,1,32.25
172,2017-11-22,17,2,1,9.81
172,2017-11-22,18,1,1,0.32
172,2017-11-22,19,1,1,2.31
172,2017-11-22,20,2,0,5.74
172,2017-11-22,21,2,1,3.21
172,2017-11-22,22,2,1,2.52
172,2017-11-22,23,1,1,4.13
172,2017-11-22,25,1,1,28.25
172,2017-11-22,27,1,1,27.81
172,2017-11-22,28,2,1,11.14
172,2017-11-22,29,2,0,9.38
172,2017-11-22,30,2,1,0.09
172,2017-11-22,31,2,1,7.02
172,2017-11-22,32,1,1,1.48
172,2017-11-22,33,1,1,10.02
172,2017-11-22,34,2,0,14.01
172,2017-11-22,35,1,1,3.31
172,2017-11-22,36,2,0,8.48
172,2017-11-22,37,2,1,4.42
172,2017-11-22,38,2,1,7.31
172,2017-11-22,39,1,1,12.2
172,2017-11-22,41,1,0,76.77
172,2017-11-22,42,2,1,55.93
172,2017-11-22,43,2,1,13.86
172,2017-11-22,44,2,1,3.8
172,2017-11-22,47,1,1,31.37
172,2017-11-22,48,1,0,106.86
172,2017-11-23,1,1,0,8.06
172,2017-11-23,2,2,1,28.22
172,2017-11-23,3,2,1,7.41
172,2017-11-23,4,1,0,38.05
172,2017-11-23,6,2,1,59.75
172,2017-11-23,7,2,1,6.33
172,2017-11-23,8,1,0,69.53
172,2017-11-23,10,2,1,26.57
172,2017-11-23,11,1,0,6.24
172,2017-11-23,12,2,1,29.86
172,2017-11-23,14,2,1,28.52
172,2017-11-23,15,2,1,8.27
172,2017-11-23,17,2,1,30.1
172,2017-11-23,18,2,1,9.22
172,2017-11-23,19,1,1,2.72
172,2017-11-23,21,1,0,183.74
172,2017-11-23,22,1,1,62.18
172,2017-11-23,23,1,1,0.29
172,2017-11-23,26,2,1,59.01
172,2017-11-23,27,1,1,1.11
172,2017-11-23,28,2,1,4.16
172,2017-11-23,29,1,0,141.95
172,2017-11-23,30,1,1,31.61
172,2017-11-23,31,2,1,8.59
172,2017-11-23,32,2,1,8.41
172,2017-11-23,33,1,1,2.74
172,2017-11-23,34,2,1,8.38
172,2017-11-23,35,2,1,1.7
172,2017-11-23,36,2,1,14.29
172,2017-11-23,37,2,1,6.65
172,2017-11-23,38,1,1,7.92
172,2017-11-23,40,1,1,27.79
172,2017-11-23,41,2,1,4.12
172,2017-11-23,42,2,1,4.11
172,2017-11-23,43,2,1,6.09
172,2017-11-23,45,1,1,31.91
172,2017-11-23,47,2,1,27.56
172,2017-11-23,48,1,0,342.26
172,2017-11-23,51,2,1,32.95
172,2017-11-24,1,2,1,11.07
172,2017-11-24,2,2,0,4.32
172,2017-11-24,3,2,1,6.19
172,2017-11-24,4,1,1,11.12
172,2017-11-24,5,1,1,13.23
172,2017-11-24,6,2,1,5.77
172,2017-11-24,7,1,0,13.63
172,2017-11-24,8,2,1,9.24
172,2017-11-24,9,2,1,2.41
172,2017-11-24,10,2,1,4.13
172,2017-11-24,11,2,0,4.15
172,2017-11-24,12,2,1,5.25
172,2017-11-24,13,1,1,12.79
172,2017-11-24,14,2,1,5.84
172,2017-11-24,15,1,1,7.03
172,2017-11-24,17,1,1,30.08
172,2017-11-24,18,2,0,13.57
172,2017-11-24,19,2,1,12.95
172,2017-11-24,20,1,1,2.74
172,2017-11-24,21,1,0,7.43
172,2017-11-24,22,2,1,1.16
172,2017-11-24,23,1,1,1.15
172,2017-11-24,24,1,1,12.4
172,2017-11-24,26,1,1,28.74
172,2017-11-24,27,2,1,5.98
172,2017-11-24,28,2,0,5.59
172,2017-11-24,29,1,1,5.95
172,2017-11-24,30,2,1,7.72
172,2017-11-24,31,1,1,1.44
172,2017-11-24,32,1,1,1.4
172,2017-11-24,33,2,1,9.5
172,2017-11-24,34,2,1,5.09
172,2017-11-24,35,1,1,1.58
172,2017-11-24,36,2,0,11.9
172,2017-11-24,37,2,1,1.4
172,2017-11-24,38,2,1,9.76
172,2017-11-24,39,2,0,9.33
172,2017-11-24,40,1,1,6.05
172,2017-11-24,41,2,1,0.15
172,2017-11-24,42,1,1,4.74
172,2017-11-24,43,1,1,7.91
172,2017-11-24,44,2,1,7.16
172,2017-11-24,45,1,1,8.28
172,2017-11-24,47,1,1,33.19
172,2017-11-24,48,1,1,4.43
172,2017-11-24,51,2,1,33.48
172,2017-11-25,1,2,1,6.95
172,2017-11-25,2,2,0,8.82
172,2017-11-25,3,1,1,4.62
172,2017-11-25,4,2,0,6.32
172,2017-11-25,5,2,1,0.2
172,2017-11-25,6,2,1,4.83
172,2017-11-25,7,1,1,4.02
172,2017-11-25,8,2,0,8.19
172,2017-11-25,9,1,1,6.27
172,2017-11-25,10,2,1,3.27
172,2017-11-25,11,2,0,33.51
172,2017-11-25,12,1,1,29.47
172,2017-11-25,13,2,1,3.14
172,2017-11-25,14,1,1,6.13
172,2017-11-25,15,2,0,10.73
172,2017-11-25,16,1,1,13.35
172,2017-11-25,17,1,0,11.32
172,2017-11-25,18,2,1,5.13
172,2017-11-25,19,1,1,2.33
172,2017-11-25,20,2,0,6.9
172,2017-11-25,21,2,1,1.16
172,2017-11-25,22,2,1,2.02
172,2017-11-25,23,1,0,4.18
172,2017-11-25,24,2,1,6.83
172,2017-11-25,25,2,0,8.98
172,2017-11-25,26,1,1,2.79
172,2017-11-25,28,2,1,34.62
172,2017-11-25,29,2,1,2.41
172,2017-11-25,30,1,1,3.62
172,2017-11-25,31,2,0,8.47
172,2017-11-25,32,1,1,3.29
172,2017-11-25,34,1,0,32.8
172,2017-11-25,35,2,1,6.06
172,2017-11-25,36,1,1,2.95
172,2017-11-25,37,2,0,41.85
172,2017-11-25,38,1,1,27.35
172,2017-11-25,39,2,1,6.53
172,2017-11-25,40,1,1,2.53
172,2017-11-25,41,1,0,51.01
172,2017-11-25,42,2,1,35.56
172,2017-11-25,43,2,1,4.79
172,2017-11-25,44,2,1,2.68
172,2017-11-25,45,1,1,0.2
172,2017-11-25,48,1,1,1.97
172,2017-11-25,49,1,1,0.63
172,2017-11-26,1,2,1,6.43
172,2017-11-26,2,2,0,4.41
172,2017-11-26,3,1,1,8.29
172,2017-11-26,4,2,1,1.64
172,2017-11-26,5,1,0,6.02
172,2017-11-26,6,2,1,1.72
172,2017-11-26,7,2,1,3.36
172,2017-11-26,8,2,0,4.31
172,2017-11-26,9,1,1,1.51
172,2017-11-26,10,1,0,23.37
172,2017-11-26,11,1,1,35.04
172,2017-11-26,12,1,1,0.34
172,2017-11-26,13,2,1,5.78
172,2017-11-26,14,1,1,3.66
172,2017-11-26,15,2,0,4.85
172,2017-11-26,16,2,1,4.01
172,2017-11-26,17,2,1,2.41
172,2017-11-26,18,2,1,5.48
172,2017-11-26,19,1,0,3.05
172,2017-11-26,20,1,1,1.56
172,2017-11-26,21,1,0,4
172,2017-11-26,23,1,1,26.87
172,2017-11-26,24,1,1,3.86
172,2017-11-26,25,2,0,7.68
172,2017-11-26,26,1,1,4.22
172,2017-11-26,27,1,1,13.16
172,2017-11-26,28,2,1,7.04
172,2017-11-26,29,2,1,2.67
172,2017-11-26,30,2,1,8.44
172,2017-11-26,31,1,0,84.53
172,2017-11-26,32,1,1,35.93
172,2017-11-26,33,1,0,8.44
172,2017-11-26,34,2,1,3.48
172,2017-11-26,35,2,0,0.45
172,2017-11-26,36,2,1,2.18
172,2017-11-26,37,2,1,2.61
172,2017-11-26,38,1,1,11.99
172,2017-11-26,39,2,1,8.54
172,2017-11-26,40,1,1,0.48
172,2017-11-26,41,2,0,10.34
172,2017-11-26,42,1,1,9.3
172,2017-11-26,43,1,1,3.09
172,2017-11-26,44,2,1,3.58
172,2017-11-26,45,1,0,12.51
172,2017-11-26,46,1,1,0.58
172,2017-11-26,47,1,0,5.62
172,2017-11-26,48,2,1,27.12
172,2017-11-26,49,2,1,0.88
172,2017-11-26,50,2,0,5.77
172,2017-11-27,2,2,1,23.29
172,2017-11-27,3,2,1,0.92
172,2017-11-27,4,2,1,3.24
172,2017-11-27,6,2,1,30.38
172,2017-11-27,8,1,0,129.99
172,2017-11-27,9,1,0,7.17
172,2017-11-27,10,2,1,66.16
172,2017-11-27,11,2,1,7.11
172,2017-11-27,12,1,0,41.82
172,2017-11-27,13,1,0,3.76
172,2017-11-27,14,2,1,43.34
172,2017-11-27,15,2,1,2.68
172,2017-11-27,16,1,0,28.57
172,2017-11-27,17,2,1,21.26
172,2017-11-27,18,2,1,5.12
172,2017-11-27,19,2,1,4.43
172,2017-11-27,20,2,1,1.33
172,2017-11-27,21,2,1,3.03
172,2017-11-27,22,2,1,3.13
172,2017-11-27,23,2,1,7.98
172,2017-11-27,24,2,1,2.42
172,2017-11-27,25,1,1,8.04
172,2017-11-27,27,1,0,157.74
172,2017-11-27,28,1,1,45.08
172,2017-11-27,29,2,1,5.06
172,2017-11-27,30,2,1,2.3
172,2017-11-27,32,2,1,25.34
172,2017-11-27,33,1,0,6.75
172,2017-11-27,34,2,1,1.67
172,2017-11-27,35,2,1,3.17
172,2017-11-27,36,2,1,3.63
172,2017-11-27,37,1,1,3.79
172,2017-11-27,39,2,1,29.41
172,2017-11-27,42,1,1,6.72
172,2017-11-27,44,1,0,123.16
172,2017-11-27,46,1,0,4.14
172,2017-11-27,49,1,1,68.13
172,2017-11-27,54,1,1,9.32
172,2017-11-28,1,1,0,5.86
172,2017-11-28,2,1,0,7.31
172,2017-11-28,3,2,1,46.04
172,2017-11-28,6,1,0,61.25
172,2017-11-28,7,1,1,67.06
172,2017-11-28,8,2,1,4.06
172,2017-11-28,10,1,1,22.21
172,2017-11-28,11,2,1,2.4
172,2017-11-28,12,1,1,1.77
172,2017-11-28,13,1,1,8.77
172,2017-11-28,14,2,1,3.14
172,2017-11-28,15,2,1,3.46
172,2017-11-28,17,2,1,27.4
172,2017-11-28,18,1,0,177.94
172,2017-11-28,19,1,1,29.46
172,2017-11-28,20,2,1,9.3
172,2017-11-28,21,2,1,5.6
172,2017-11-28,22,2,1,2.23
172,2017-11-28,23,2,1,4.15
172,2017-11-28,25,1,0,111.01
172,2017-11-28,27,2,1,64.61
172,2017-11-28,28,1,0,38.18
172,2017-11-28,29,2,1,23.65
172,2017-11-28,31,2,1,30.42
172,2017-11-28,32,2,1,3.98
172,2017-11-28,33,2,1,2.73
172,2017-11-28,34,2,1,9.78
172,2017-11-28,36,2,1,30.65
172,2017-11-28,40,2,1,64.34
172,2017-11-28,41,2,1,8.13
172,2017-11-28,43,1,0,248.96
172,2017-11-28,44,1,0,1.08
172,2017-11-28,48,1,0,0.43
172,2017-11-29,1,2,1,0.42
172,2017-11-29,2,2,1,8.41
172,2017-11-29,4,2,1,29.55
172,2017-11-29,5,2,1,8.29
172,2017-11-29,6,2,1,4.93
172,2017-11-29,7,2,1,2.25
172,2017-11-29,11,2,1,67.82
172,2017-11-29,12,2,1,1.62
172,2017-11-29,13,2,1,3.03
172,2017-11-29,14,1,0,227.24
172,2017-11-29,16,2,1,46.81
172,2017-11-29,17,2,1,2.77
172,2017-11-29,18,2,1,3.13
172,2017-11-29,19,2,1,1.35
172,2017-11-29,20,2,1,5.49
172,2017-11-29,21,2,1,2.8
172,2017-11-29,22,2,1,1.91
172,2017-11-29,24,2,1,23.66
172,2017-11-29,25,1,0,7.63
172,2017-11-29,26,1,1,2.8
172,2017-11-29,27,2,1,3.84
172,2017-11-29,28,2,1,5.81
172,2017-11-29,29,2,1,9.35
172,2017-11-29,30,2,1,7.67
172,2017-11-29,31,1,0,90.94
172,2017-11-29,32,1,1,23.8
172,2017-11-29,34,2,1,25.36
172,2017-11-29,35,1,0,56.42
172,2017-11-29,36,1,1,28.25
172,2017-11-29,37,1,1,5.52
172,2017-11-29,38,2,1,4.17
172,2017-11-29,41,1,0,29
172,2017-11-29,44,1,0,25.9
175,2017-11-11,1,1,0,8.6
175,2017-11-11,2,2,1,42.93
175,2017-11-11,3,2,1,2.41
175,2017-11-11,4,1,0,34.42
175,2017-11-11,5,1,1,7.12
175,2017-11-11,6,2,1,11.7
175,2017-11-11,7,2,1,8.81
175,2017-11-11,8,2,0,14.11
175,2017-11-11,9,2,1,2.38
175,2017-11-11,10,1,1,1.93
175,2017-11-11,11,2,1,15.61
175,2017-11-11,12,2,0,7.23
175,2017-11-11,13,1,0,0.47
175,2017-11-11,14,2,1,101.49
175,2017-11-11,15,1,0,23.45
175,2017-11-11,16,2,1,16.55
175,2017-11-11,17,1,1,5.57
175,2017-11-11,18,1,1,7.97
175,2017-11-11,19,1,1,9.06
175,2017-11-11,20,1,0,6.14
175,2017-11-11,21,2,0,5.17
175,2017-11-11,22,2,1,5.07
175,2017-11-11,23,2,1,0.95
175,2017-11-11,24,2,1,2.99
175,2017-11-11,25,2,1,0.35
175,2017-11-11,26,1,1,29.04
175,2017-11-11,27,2,0,60.03
175,2017-11-11,28,1,1,54.17
175,2017-11-11,29,2,1,28.64
175,2017-11-11,30,2,1,1.42
175,2017-11-11,31,2,1,1.62
175,2017-11-11,32,2,0,96.8
175,2017-11-11,33,2,1,4.99
175,2017-11-11,34,1,0,6.88
175,2017-11-11,35,1,0,15.06
175,2017-11-11,36,1,0,1.53
175,2017-11-11,37,1,0,3.53
175,2017-11-11,38,2,1,164.72
175,2017-11-11,39,1,0,13.65
175,2017-11-11,40,1,0,3.73
175,2017-11-11,41,2,1,93.29
175,2017-11-11,42,1,0,40.77
175,2017-11-11,43,2,1,41.16
175,2017-11-11,44,2,1,11.77
175,2017-11-11,45,1,0,45.22
175,2017-11-11,48,1,1,87.84
175,2017-11-11,49,1,0,79.48
175,2017-11-11,50,1,1,46.8
175,2017-11-12,1,1,0,11.7
175,2017-11-12,2,2,1,42.96
175,2017-11-12,3,1,0,15.34
175,2017-11-12,4,2,1,42.39
175,2017-11-12,5,2,1,1.29
175,2017-11-12,6,2,1,2.46
175,2017-11-12,7,1,0,41.87
175,2017-11-12,8,2,1,50.85
175,2017-11-12,9,1,0,31.95
175,2017-11-12,10,1,1,46.13
175,2017-11-12,11,1,1,14.56
175,2017-11-12,12,1,1,15.29
175,2017-11-12,13,2,1,7.27
175,2017-11-12,14,2,0,19.71
175,2017-11-12,15,2,1,6.18
175,2017-11-12,16,1,1,5.91
175,2017-11-12,17,1,1,0.17
175,2017-11-12,18,1,1,3.17
175,2017-11-12,19,2,0,3.13
175,2017-11-12,20,2,1,8.31
175,2017-11-12,21,1,1,2.92
175,2017-11-12,22,1,1,5.46
175,2017-11-12,23,2,0,23.6
175,2017-11-12,24,1,1,4.12
175,2017-11-12,25,2,0,25.54
175,2017-11-12,26,2,1,1.9
175,2017-11-12,27,2,0,14.73
175,2017-11-12,28,2,1,46.9
175,2017-11-12,29,2,1,3.86
175,2017-11-12,30,1,1,3.87
175,2017-11-12,31,2,0,53.31
175,2017-11-12,32,1,0,14.25
175,2017-11-12,33,1,0,7.1
175,2017-11-12,34,2,1,131.23
175,2017-11-12,35,2,1,2.74
175,2017-11-12,36,2,1,3.7
175,2017-11-12,37,2,1,7.14
175,2017-11-12,39,2,1,61.56
175,2017-11-12,40,2,1,21.02
175,2017-11-12,41,2,1,29.36
175,2017-11-12,42,1,0,225.6
175,2017-11-12,43,1,0,7.91
175,2017-11-12,44,1,0,7.78
175,2017-11-12,45,2,1,125.84
175,2017-11-12,48,1,0,84.1
175,2017-11-12,49,1,0,0.57
175,2017-11-13,1,1,0,3.05
175,2017-11-13,2,2,1,43.16
175,2017-11-13,3,2,1,1.92
175,2017-11-13,4,1,0,28.03
175,2017-11-13,6,2,1,96.76
175,2017-11-13,7,2,1,26
175,2017-11-13,8,2,1,28.98
175,2017-11-13,9,1,0,147.3
175,2017-11-13,10,1,1,49.2
175,2017-11-13,11,2,1,4.07
175,2017-11-13,12,1,1,1.05
175,2017-11-13,13,2,0,28.53
175,2017-11-13,14,1,1,7.04
175,2017-11-13,15,2,1,23.33
175,2017-11-13,16,2,1,5.44
175,2017-11-13,17,1,0,29.4
175,2017-11-13,19,2,1,89.54
175,2017-11-13,20,2,1,3.97
175,2017-11-13,21,1,0,74.86
175,2017-11-13,22,1,0,21.81
175,2017-11-13,23,1,0,1.87
175,2017-11-13,24,1,0,7.66
175,2017-11-13,26,2,1,216.49
175,2017-11-13,27,2,1,11.21
175,2017-11-13,28,2,1,10.54
175,2017-11-13,29,2,1,0.86
175,2017-11-13,30,2,1,1.88
175,2017-11-13,31,1,0,131.96
175,2017-11-13,32,2,1,70.32
175,2017-11-13,33,2,1,15.37
175,2017-11-13,34,2,1,10.63
175,2017-11-13,35,1,0,95.95
175,2017-11-13,37,2,1,94.3
175,2017-11-13,38,2,1,8.81
175,2017-11-13,39,2,1,2.48
175,2017-11-13,40,2,1,8.32
175,2017-11-13,41,2,1,1.55
175,2017-11-13,42,1,0,153.67
175,2017-11-13,45,1,0,69.53
175,2017-11-13,46,1,0,5.44
175,2017-11-13,47,1,0,1.51
175,2017-11-13,1,2,0,
175,2017-11-14,1,1,0,1.51
175,2017-11-14,2,2,1,41.27
175,2017-11-14,3,2,1,5.93
175,2017-11-14,4,2,1,7.47
175,2017-11-14,5,2,1,2.65
175,2017-11-14,6,2,1,3.95
175,2017-11-14,7,1,0,76.45
175,2017-11-14,10,1,0,85.72
175,2017-11-14,11,1,0,20.93
175,2017-11-14,12,2,1,213.05
175,2017-11-14,13,1,0,32.06
175,2017-11-14,15,1,0,54.78
175,2017-11-14,16,1,0,22.44
175,2017-11-14,17,2,1,173.5
175,2017-11-14,18,1,0,26.36
175,2017-11-14,19,2,1,52.95
175,2017-11-14,20,2,1,6.79
175,2017-11-14,21,2,1,6.98
175,2017-11-14,22,2,1,5.57
175,2017-11-14,23,1,0,79.1
175,2017-11-14,24,2,1,70.65
175,2017-11-14,25,1,0,43.69
175,2017-11-14,26,2,1,46.78
175,2017-11-14,27,2,1,24.18
175,2017-11-14,28,2,1,6.34
175,2017-11-14,29,2,1,4.88
175,2017-11-14,30,2,1,15.07
175,2017-11-14,32,2,1,59.57
175,2017-11-14,33,1,0,205.82
175,2017-11-14,34,2,1,57.15
175,2017-11-14,35,2,1,29.85
175,2017-11-14,36,1,0,68.26
175,2017-11-14,37,1,0,21.99
175,2017-11-14,38,2,1,88.08
175,2017-11-14,39,1,0,19.57
175,2017-11-14,40,2,1,41.23
175,2017-11-14,41,1,0,33.81
175,2017-11-14,42,1,0,28.42
175,2017-11-14,44,2,1,132.03
175,2017-11-14,46,2,1,52.16
175,2017-11-14,51,1,0,173.64
175,2017-11-15,1,1,0,0.57
175,2017-11-15,2,2,1,58.77
175,2017-11-15,4,1,0,70.15
175,2017-11-15,5,1,0,8.77
175,2017-11-15,6,1,0,6.97
175,2017-11-15,7,2,1,164.57
175,2017-11-15,8,2,1,0.85
175,2017-11-15,10,1,0,70.54
175,2017-11-15,11,2,1,85
175,2017-11-15,12,1,0,26.64
175,2017-11-15,13,2,1,46.88
175,2017-11-15,14,1,0,28.65
175,2017-11-15,15,2,1,48.34
175,2017-11-15,16,1,0,23.03
175,2017-11-15,17,2,1,42.81
175,2017-11-15,19,2,1,57.4
175,2017-11-15,21,2,1,62.22
175,2017-11-15,22,2,1,25.04
175,2017-11-15,23,2,1,22.42
175,2017-11-15,26,2,1,88.21
175,2017-11-15,31,1,0,503.13
175,2017-11-15,32,1,0,11.69
175,2017-11-15,34,1,0,47.29
175,2017-11-15,35,1,0,0.97
175,2017-11-15,36,2,1,387
175,2017-11-15,37,2,1,18.93
175,2017-11-15,41,2,1,132.18
175,2017-11-15,42,1,0,215.99
175,2017-11-15,46,2,1,186.75
175,2017-11-15,47,2,1,19.62
175,2017-11-15,48,1,0,206.38
175,2017-11-15,49,2,1,47.36
175,2017-11-15,51,2,1,16.39
175,2017-11-16,1,1,0,17.08
175,2017-11-16,2,2,1,45.11
175,2017-11-16,3,2,1,7.74
175,2017-11-16,4,2,1,10.53
175,2017-11-16,5,2,1,6.19
175,2017-11-16,6,2,1,8.25
175,2017-11-16,7,1,0,93.04
175,2017-11-16,9,1,1,99.71
175,2017-11-16,10,1,1,4.72
175,2017-11-16,11,1,1,1.12
175,2017-11-16,12,2,0,26.27
175,2017-11-16,13,1,1,7.82
175,2017-11-16,14,2,0,25.04
175,2017-11-16,15,2,1,44.25
175,2017-11-16,16,2,1,2.73
175,2017-11-16,17,2,1,1.81
175,2017-11-16,18,2,1,1.08
175,2017-11-16,19,1,0,59.53
175,2017-11-16,20,2,1,48.01
175,2017-11-16,21,1,0,27.34
175,2017-11-16,23,2,1,90.12
175,2017-11-16,24,2,1,10.29
175,2017-11-16,25,1,0,99.43
175,2017-11-16,26,1,0,3.54
175,2017-11-16,27,2,1,89.98
175,2017-11-16,28,2,1,7.72
175,2017-11-16,29,2,1,1.71
175,2017-11-16,30,2,1,8.69
175,2017-11-16,31,1,0,80.9
175,2017-11-16,32,2,1,48.01
175,2017-11-16,34,2,1,59.12
175,2017-11-16,35,1,0,96.54
175,2017-11-16,36,2,1,54.87
175,2017-11-16,37,2,1,6.36
175,2017-11-16,39,2,1,46.48
175,2017-11-16,40,1,0,122.44
175,2017-11-16,41,2,1,48.26
175,2017-11-16,42,1,0,32.86
175,2017-11-16,43,2,1,43.41
175,2017-11-16,49,1,0,48.14
175,2017-11-16,50,1,0,14.43
175,2017-11-20,1,1,0,9.57
175,2017-11-20,2,2,1,32.68
175,2017-11-20,3,2,1,8.85
175,2017-11-20,4,2,1,6.08
175,2017-11-20,5,1,0,56.08
175,2017-11-20,6,2,1,30.91
175,2017-11-20,7,2,1,5.95
175,2017-11-20,8,2,1,6.35
175,2017-11-20,9,1,0,51.67
175,2017-11-20,10,2,1,32.86
175,2017-11-20,11,1,0,22.41
175,2017-11-20,12,2,1,27.93
175,2017-11-20,13,1,0,15.45
175,2017-11-20,15,2,1,63.97
175,2017-11-20,16,2,1,3.45
175,2017-11-20,17,2,1,14.56
175,2017-11-20,18,2,1,0.87
175,2017-11-20,19,2,1,1.01
175,2017-11-20,20,1,1,9.51
175,2017-11-20,21,1,1,4.67
175,2017-11-20,22,2,0,152.46
175,2017-11-20,23,1,1,27.79
175,2017-11-20,24,1,1,8.07
175,2017-11-20,25,1,1,6.92
175,2017-11-20,26,2,0,58
175,2017-11-20,28,2,1,59.16
175,2017-11-20,30,2,0,35.99
175,2017-11-20,31,2,1,8.18
175,2017-11-20,32,1,1,1.44
175,2017-11-20,33,2,1,11.72
175,2017-11-20,34,1,1,1.49
175,2017-11-20,35,1,1,8.58
175,2017-11-20,36,1,1,0.47
175,2017-11-20,37,2,0,12.34
175,2017-11-20,38,2,0,2.07
175,2017-11-20,39,1,1,40.39
175,2017-11-20,41,2,0,54.6
175,2017-11-20,42,1,1,55.44
175,2017-11-20,43,1,1,2.93
175,2017-11-20,44,2,0,30.74
175,2017-11-20,45,1,1,28.07
175,2017-11-20,47,1,1,3.68
175,2017-11-20,54,1,1,2.47
175,2017-11-21,1,2,1,0.18
175,2017-11-21,2,1,0,7.63
175,2017-11-21,3,2,1,33
175,2017-11-21,4,2,1,2.54
175,2017-11-21,5,2,1,2
175,2017-11-21,6,2,1,5.59
175,2017-11-21,10,2,0,92.01
175,2017-11-21,11,2,1,2.38
175,2017-11-21,12,2,1,2.17
175,2017-11-21,13,1,0,28.92
175,2017-11-21,14,1,1,34.46
175,2017-11-21,15,1,1,2.23
175,2017-11-21,16,2,0,43.06
175,2017-11-21,17,1,0,7.34
175,2017-11-21,18,1,1,54.91
175,2017-11-21,19,1,1,5.88
175,2017-11-21,20,2,0,8.86
175,2017-11-21,21,2,1,7.47
175,2017-11-21,22,1,0,6.53
175,2017-11-21,23,1,1,3.31
175,2017-11-21,24,1,1,0.43
175,2017-11-21,25,1,1,0.26
175,2017-11-21,26,1,1,10.55
175,2017-11-21,27,1,1,0.61
175,2017-11-21,28,1,1,3.02
175,2017-11-21,30,2,1,27.23
175,2017-11-21,31,1,0,132.71
175,2017-11-21,32,2,1,27.58
175,2017-11-21,33,2,1,1.89
175,2017-11-21,34,2,1,4.37
175,2017-11-21,35,2,1,1.91
175,2017-11-21,36,2,1,2.32
175,2017-11-21,37,2,1,2.52
175,2017-11-21,38,1,0,88.77
175,2017-11-21,39,1,1,5.82
175,2017-11-21,40,1,1,0.72
175,2017-11-21,41,1,1,4.1
175,2017-11-21,42,2,0,8.29
175,2017-11-21,43,2,1,0.17
175,2017-11-21,44,2,1,12.37
175,2017-11-21,45,1,0,40.5
175,2017-11-21,46,2,1,29.05
175,2017-11-21,47,1,1,4.54
175,2017-11-21,48,1,1,2.19
175,2017-11-21,49,1,1,2.88
175,2017-11-22,1,1,0,1.95
175,2017-11-22,2,2,1,29.81
175,2017-11-22,3,1,0,17.86
175,2017-11-22,4,2,1,37.39
175,2017-11-22,5,1,0,23.51
175,2017-11-22,6,1,0,5.11
175,2017-11-22,7,1,0,4.03
175,2017-11-22,8,2,1,86.93
175,2017-11-22,9,1,0,19.98
175,2017-11-22,10,2,1,30.7
175,2017-11-22,11,2,1,5.51
175,2017-11-22,12,2,1,2.79
175,2017-11-22,13,2,1,2.06
175,2017-11-22,14,2,1,7.38
175,2017-11-22,15,2,1,2.24
175,2017-11-22,16,2,0,6
175,2017-11-22,17,1,0,11.67
175,2017-11-22,18,2,1,3.5
175,2017-11-22,19,1,0,13.08
175,2017-11-22,20,2,1,30.59
175,2017-11-22,21,2,1,1.03
175,2017-11-22,22,2,1,14.81
175,2017-11-22,23,1,0,59.74
175,2017-11-22,24,2,1,30.16
175,2017-11-22,25,2,1,3.06
175,2017-11-22,26,2,1,4.75
175,2017-11-22,27,2,1,12.27
175,2017-11-22,29,1,0,98.73
175,2017-11-22,30,2,1,59.11
175,2017-11-22,31,1,0,24.66
175,2017-11-22,32,1,0,11.52
175,2017-11-22,33,2,1,56.39
175,2017-11-22,34,1,0,11.56
175,2017-11-22,35,1,1,2.79
175,2017-11-22,36,1,1,0.74
175,2017-11-22,37,2,0,8.37
175,2017-11-22,38,2,1,0.81
175,2017-11-22,39,1,1,7
175,2017-11-22,40,1,1,1.65
175,2017-11-22,41,2,0,8.2
175,2017-11-22,43,1,0,38.06
175,2017-11-22,44,2,1,1.54
175,2017-11-22,45,2,1,3.06
175,2017-11-22,47,1,0,33.79
175,2017-11-22,49,1,1,5.23
175,2017-11-22,50,1,1,0.2
175,2017-11-23,1,1,0,0.95
175,2017-11-23,2,2,1,28.04
175,2017-11-23,3,2,1,2.23
175,2017-11-23,4,2,1,11.96
175,2017-11-23,5,2,1,5.14
175,2017-11-23,6,1,0,69.14
175,2017-11-23,7,1,1,29.02
175,2017-11-23,8,2,0,6.5
175,2017-11-23,9,2,1,10.76
175,2017-11-23,10,2,1,2.29
175,2017-11-23,11,2,0,7.61
175,2017-11-23,12,2,1,10.77
175,2017-11-23,13,1,0,26.64
175,2017-11-23,14,2,1,27.21
175,2017-11-23,15,1,1,0.87
175,2017-11-23,16,2,0,13.51
175,2017-11-23,18,2,1,27.57
175,2017-11-23,19,2,1,2.94
175,2017-11-23,20,2,1,3.25
175,2017-11-23,21,2,1,1.83
175,2017-11-23,22,1,1,9.27
175,2017-11-23,23,2,0,48.07
175,2017-11-23,24,2,1,1.36
175,2017-11-23,26,1,0,35.97
175,2017-11-23,27,1,0,11.33
175,2017-11-23,28,2,1,0.8
175,2017-11-23,29,2,1,3.44
175,2017-11-23,30,1,0,23.98
175,2017-11-23,31,1,1,0.34
175,2017-11-23,32,1,1,3.44
175,2017-11-23,33,2,1,3.75
175,2017-11-23,34,1,1,3.72
175,2017-11-23,35,1,1,5.07
175,2017-11-23,36,1,1,3.1
175,2017-11-23,37,1,1,0.38
175,2017-11-23,38,1,1,2.93
175,2017-11-23,39,1,1,2.11
175,2017-11-23,40,1,1,6.48
175,2017-11-23,41,1,1,3.29
175,2017-11-23,42,2,0,14.84
175,2017-11-23,43,2,1,1.34
175,2017-11-23,44,2,1,1.96
175,2017-11-23,45,1,1,3
175,2017-11-23,46,2,0,6.94
175,2017-11-23,47,2,1,10.19
175,2017-11-23,48,1,0,24
175,2017-11-23,49,1,0,3.82
175,2017-11-23,50,1,0,0.81
175,2017-11-24,1,2,1,1.27
175,2017-11-24,2,1,0,16.84
175,2017-11-24,3,1,1,0.28
175,2017-11-24,4,1,1,0.4
175,2017-11-24,5,1,1,2.86
175,2017-11-24,6,1,0,3.25
175,2017-11-24,7,2,1,3.61
175,2017-11-24,8,2,1,3.2
175,2017-11-24,10,2,1,30.29
175,2017-11-24,11,1,0,12.47
175,2017-11-24,12,2,1,3.36
175,2017-11-24,13,2,1,1.88
175,2017-11-24,14,2,1,1.76
175,2017-11-24,15,2,1,1.18
175,2017-11-24,16,2,1,6.87
175,2017-11-24,17,2,1,2.7
175,2017-11-24,18,2,1,10.43
175,2017-11-24,19,1,0,12.36
175,2017-11-24,20,1,1,5.63
175,2017-11-24,21,1,1,6.13
175,2017-11-24,22,2,0,7.27
175,2017-11-24,23,1,1,3.64
175,2017-11-24,24,1,1,1.02
175,2017-11-24,25,1,1,6
175,2017-11-24,26,1,0,7.15
175,2017-11-24,27,1,1,2.76
175,2017-11-24,28,2,0,13.01
175,2017-11-24,29,1,1,2.56
175,2017-11-24,30,1,1,1.53
175,2017-11-24,31,2,0,9.51
175,2017-11-24,32,2,1,8.32
175,2017-11-24,33,2,0,11.98
175,2017-11-24,34,2,1,6.25
175,2017-11-24,35,1,1,0.44
175,2017-11-24,36,1,1,0.71
175,2017-11-24,37,1,1,2.56
175,2017-11-24,38,2,1,8.68
175,2017-11-24,39,1,1,0.39
175,2017-11-24,40,1,1,1.8
175,2017-11-24,41,1,1,0.2
175,2017-11-24,42,2,0,8.51
175,2017-11-24,43,1,1,1.98
175,2017-11-24,44,1,1,2.73
175,2017-11-24,46,2,0,11.12
175,2017-11-24,47,2,1,1.16
175,2017-11-24,48,2,1,1
175,2017-11-24,49,2,1,6.03
175,2017-11-24,50,2,0,0
175,2017-11-25,1,1,1,11.37
175,2017-11-25,2,2,0,7.51
175,2017-11-25,3,1,1,0.85
175,2017-11-25,4,1,1,0.67
175,2017-11-25,5,1,0,6.43
175,2017-11-25,6,2,1,11.64
175,2017-11-25,7,2,0,5.3
175,2017-11-25,8,2,1,1.71
175,2017-11-25,9,2,1,0.67
175,2017-11-25,10,2,1,3.04
175,2017-11-25,11,1,1,3.59
175,2017-11-25,12,2,0,11.77
175,2017-11-25,13,2,0,0.7
175,2017-11-25,14,2,1,30.27
175,2017-11-25,15,2,1,1.49
175,2017-11-25,16,1,1,4.8
175,2017-11-25,17,2,0,7.25
175,2017-11-25,18,1,1,1.84
175,2017-11-25,19,2,0,8.65
175,2017-11-25,20,2,1,6.01
175,2017-11-25,21,2,1,1.5
175,2017-11-25,22,2,0,11.66
175,2017-11-25,23,1,1,7.39
175,2017-11-25,24,1,1,7.76
175,2017-11-25,25,2,0,8.45
175,2017-11-25,26,1,1,1.88
175,2017-11-25,27,1,1,2.48
175,2017-11-25,28,2,0,27.93
175,2017-11-25,29,2,1,0.96
175,2017-11-25,30,2,1,5.64
175,2017-11-25,31,2,1,3.34
175,2017-11-25,32,1,1,4.05
175,2017-11-25,33,1,1,2.25
175,2017-11-25,34,2,0,8.29
175,2017-11-25,35,2,1,3.29
175,2017-11-25,36,1,1,0.29
175,2017-11-25,37,1,1,0.03
175,2017-11-25,38,1,1,1.18
175,2017-11-25,39,1,1,3.22
175,2017-11-25,40,2,1,4.31
175,2017-11-25,41,2,0,9.58
175,2017-11-25,42,2,1,0.01
175,2017-11-25,47,1,1,0.53
175,2017-11-25,49,1,0,6.21
175,2017-11-25,52,1,1,0.84
175,2017-11-25,1,2,0,
175,2017-11-26,1,1,1,4.4
175,2017-11-26,2,2,0,16.87
175,2017-11-26,3,2,1,0.46
175,2017-11-26,4,2,1,3.05
175,2017-11-26,5,1,1,1.57
175,2017-11-26,6,2,1,0.75
175,2017-11-26,7,2,1,2.55
175,2017-11-26,8,2,1,5.11
175,2017-11-26,9,2,0,3.6
175,2017-11-26,10,1,1,6.18
175,2017-11-26,11,2,0,6.28
175,2017-11-26,12,1,1,0.89
175,2017-11-26,13,2,0,8.89
175,2017-11-26,14,1,1,0.02
175,2017-11-26,15,2,0,9.89
175,2017-11-26,16,2,1,0.67
175,2017-11-26,17,1,1,4.58
175,2017-11-26,18,2,0,11.3
175,2017-11-26,19,1,1,2.58
175,2017-11-26,20,2,0,8.91
175,2017-11-26,21,1,1,3.55
175,2017-11-26,22,2,0,6.2
175,2017-11-26,23,1,1,1.76
175,2017-11-26,24,1,1,0.34
175,2017-11-26,25,1,1,1.92
175,2017-11-26,26,1,1,0.67
175,2017-11-26,27,2,0,6.58
175,2017-11-26,28,2,0,5.4
175,2017-11-26,29,1,1,26.68
175,2017-11-26,30,2,1,13.23
175,2017-11-26,31,2,1,1.36
175,2017-11-26,32,2,1,4.09
175,2017-11-26,33,1,0,9.64
175,2017-11-26,34,1,1,3.79
175,2017-11-26,35,1,1,2.52
175,2017-11-26,36,2,1,3.07
175,2017-11-26,37,2,0,4.87
175,2017-11-26,38,1,1,0.04
175,2017-11-26,39,1,1,5.41
175,2017-11-26,40,2,0,6.11
175,2017-11-26,42,2,1,26.54
175,2017-11-26,43,2,1,1.02
175,2017-11-26,44,1,1,0.18
175,2017-11-26,45,2,1,12.86
175,2017-11-26,51,1,1,1.51
175,2017-11-27,1,1,0,4.7
175,2017-11-27,2,2,1,25.56
175,2017-11-27,3,2,1,3.85
175,2017-11-27,4,2,1,0.75
175,2017-11-27,5,2,1,2.19
175,2017-11-27,6,1,0,7.79
175,2017-11-27,7,2,1,2.09
175,2017-11-27,8,2,1,0.49
175,2017-11-27,9,2,1,9.66
175,2017-11-27,10,1,0,53.95
175,2017-11-27,11,2,1,30.25
175,2017-11-27,12,2,1,2.42
175,2017-11-27,13,1,0,35.1
175,2017-11-27,14,2,1,24.58
175,2017-11-27,15,1,0,17.36
175,2017-11-27,16,2,1,22.36
175,2017-11-27,17,1,1,3.4
175,2017-11-27,18,2,1,4.61
175,2017-11-27,19,2,1,0.29
175,2017-11-27,20,1,1,5.68
175,2017-11-27,21,1,1,5.99
175,2017-11-27,22,2,0,2.57
175,2017-11-27,25,2,1,49.6
175,2017-11-27,26,1,0,62.33
175,2017-11-27,27,2,1,24.34
175,2017-11-27,28,2,1,5.07
175,2017-11-27,29,1,0,30.77
175,2017-11-27,30,1,1,0.56
175,2017-11-27,31,1,1,0.57
175,2017-11-27,32,2,0,3.04
175,2017-11-27,33,2,1,6.79
175,2017-11-27,34,2,1,9.62
175,2017-11-27,35,1,1,2.99
175,2017-11-27,36,1,1,0.67
175,2017-11-27,37,1,1,4.54
175,2017-11-27,38,2,1,9.52
175,2017-11-27,39,1,1,0.73
175,2017-11-27,40,1,0,114.05
175,2017-11-27,41,1,1,24.83
175,2017-11-27,42,1,0,17.84
175,2017-11-27,43,1,0,6.92
175,2017-11-27,44,1,0,3.38
175,2017-11-27,45,2,1,69.72
175,2017-11-27,47,2,1,28.25
175,2017-11-27,52,1,0,62.66
175,2017-11-27,1,2,0,
175,2017-11-28,1,1,0,3.64
175,2017-11-28,2,2,1,28.32
175,2017-11-28,3,2,1,5.05
175,2017-11-28,4,2,1,3.07
175,2017-11-28,5,1,0,54.49
175,2017-11-28,6,1,0,4.37
175,2017-11-28,7,2,1,45.61
175,2017-11-28,8,2,1,2.14
175,2017-11-28,10,2,1,22.83
175,2017-11-28,11,2,1,1.67
175,2017-11-28,12,1,1,1.14
175,2017-11-28,13,2,1,5.21
175,2017-11-28,14,2,1,2.56
175,2017-11-28,15,1,0,9.56
175,2017-11-28,16,1,1,2.03
175,2017-11-28,17,2,1,0.69
175,2017-11-28,18,1,1,5.94
175,2017-11-28,19,2,1,3.54
175,2017-11-28,20,1,0,33.19
175,2017-11-28,21,2,1,24.06
175,2017-11-28,22,1,0,19.93
175,2017-11-28,23,2,1,26.26
175,2017-11-28,24,2,1,9.29
175,2017-11-28,25,1,0,44.58
175,2017-11-28,26,2,1,30.59
175,2017-11-28,27,2,1,5.02
175,2017-11-28,28,1,0,37.11
175,2017-11-28,29,1,1,0.85
175,2017-11-28,30,1,1,6.7
175,2017-11-28,31,2,1,3.27
175,2017-11-28,32,2,1,2.89
175,2017-11-28,33,2,1,4.66
175,2017-11-28,34,1,0,65.39
175,2017-11-28,35,1,1,21.6
175,2017-11-28,36,1,1,3.47
175,2017-11-28,37,2,1,5.6
175,2017-11-28,38,1,1,8.25
175,2017-11-28,39,1,1,0.96
175,2017-11-28,40,1,1,0.39
175,2017-11-28,42,2,1,24.21
175,2017-11-28,43,2,1,1.9
175,2017-11-28,44,1,1,3.25
175,2017-11-28,45,2,1,5.14
175,2017-11-28,46,2,1,9.75
175,2017-11-28,47,2,1,2.54
175,2017-11-29,1,1,1,0.72
175,2017-11-29,2,2,1,4.33
175,2017-11-29,3,1,1,2.32
175,2017-11-29,4,1,0,0
175,2017-11-29,5,1,1,2.65
175,2017-11-29,6,2,0,4.15
175,2017-11-29,7,1,1,0.29
175,2017-11-29,8,1,1,1.82
175,2017-11-29,9,2,1,5.83
175,2017-11-29,10,1,0,4.12
175,2017-11-29,11,2,1,4.06
175,2017-11-29,12,2,1,3.41
175,2017-11-29,13,1,1,1.79
175,2017-11-29,14,1,1,0.59
175,2017-11-29,15,1,1,3.65
175,2017-11-29,16,1,1,0.86
175,2017-11-29,17,2,0,7.55
175,2017-11-29,18,1,1,1.57
175,2017-11-29,19,2,1,3.92
175,2017-11-29,20,1,0,5.66
175,2017-11-29,21,2,1,4.57
175,2017-11-29,22,2,1,3.78
175,2017-11-29,23,2,1,5.18
175,2017-11-29,24,2,1,2.91
175,2017-11-29,25,1,1,1.2
175,2017-11-29,26,1,1,2.11
175,2017-11-29,27,1,1,0.51
175,2017-11-29,28,2,1,6.33
175,2017-11-29,29,1,0,6.56
175,2017-11-29,30,2,1,4.44
175,2017-11-29,31,2,1,5.23
175,2017-11-29,32,2,1,2.34
175,2017-11-29,33,2,0,4.08
175,2017-11-29,34,2,1,4.94
175,2017-11-29,35,2,1,3.96
175,2017-11-29,36,1,1,0.75
175,2017-11-29,37,1,1,0.13
175,2017-11-29,38,1,1,0.44
175,2017-11-29,39,2,1,4.68
175,2017-11-29,40,1,1,0.77
175,2017-11-29,41,1,0,4.71
175,2017-11-29,42,1,1,1
175,2017-11-29,44,2,1,21.92
175,2017-11-29,46,1,1,27.79
175,2017-11-29,47,2,1,1.62
175,2017-11-29,48,2,1,2.22
175,2017-11-29,49,2,1,1.89
175,2017-11-29,50,2,1,2.07
414,2017-11-11,2,2,1,59.56
414,2017-11-11,4,2,1,50.79
414,2017-11-11,5,2,1,1.65
414,2017-11-11,7,2,1,44.72
414,2017-11-11,8,1,0,214.05
414,2017-11-11,10,2,1,83.35
414,2017-11-11,11,1,0,60.56
414,2017-11-11,12,1,0,1.83
414,2017-11-11,13,1,1,83.22
414,2017-11-11,15,2,0,62.25
414,2017-11-11,16,1,0,15.37
414,2017-11-11,17,1,1,138.14
414,2017-11-11,18,1,1,5.72
414,2017-11-11,19,2,0,44.52
414,2017-11-11,20,2,0,3.77
414,2017-11-11,21,1,1,6.29
414,2017-11-11,22,2,0,3.91
414,2017-11-11,23,1,1,43.68
414,2017-11-11,24,1,1,4.37
414,2017-11-11,25,2,0,38.88
414,2017-11-11,26,2,0,3.94
414,2017-11-11,27,2,0,10
414,2017-11-11,28,2,0,16.79
414,2017-11-11,29,1,1,165.11
414,2017-11-11,30,1,1,2.96
414,2017-11-11,31,2,0,30.41
414,2017-11-11,32,2,0,3.06
414,2017-11-11,33,1,1,88.19
414,2017-11-11,34,2,0,17.12
414,2017-11-11,35,2,0,2.35
414,2017-11-11,36,1,1,83.8
414,2017-11-11,37,2,0,16.11
414,2017-11-11,38,1,1,42.87
414,2017-11-11,39,2,0,13.24
414,2017-11-11,40,2,0,2.13
414,2017-11-11,41,2,0,1.18
414,2017-11-11,42,1,1,130.95
414,2017-11-11,43,1,1,0.26
414,2017-11-11,44,1,1,0.94
414,2017-11-11,45,1,1,3.04
414,2017-11-11,46,2,0,61.64
414,2017-11-11,49,1,1,43.13
414,2017-11-11,53,1,1,9.65
414,2017-11-12,4,1,0,125.47
414,2017-11-12,5,2,1,186.92
414,2017-11-12,6,1,0,52.67
414,2017-11-12,7,2,1,64.58
414,2017-11-12,8,2,0,44.15
414,2017-11-12,9,1,1,46.45
414,2017-11-12,10,2,0,22.32
414,2017-11-12,11,2,1,45.32
414,2017-11-12,12,1,0,23.45
414,2017-11-12,13,2,1,48.15
414,2017-11-12,14,2,1,6.65
414,2017-11-12,15,1,0,39.58
414,2017-11-12,16,1,1,53.56
414,2017-11-12,17,1,1,24.03
414,2017-11-12,18,2,0,58.67
414,2017-11-12,19,1,1,44.86
414,2017-11-12,20,1,1,2.7
414,2017-11-12,21,2,0,30.67
414,2017-11-12,22,1,1,45.02
414,2017-11-12,23,1,1,2.24
414,2017-11-12,24,2,0,44.47
414,2017-11-12,25,2,0,5.64
414,2017-11-12,26,2,1,88.73
414,2017-11-12,27,2,1,3.28
414,2017-11-12,28,1,1,11.85
414,2017-11-12,29,1,1,10.61
414,2017-11-12,30,1,1,6.36
414,2017-11-12,31,2,0,103.78
414,2017-11-12,33,1,1,96.07
414,2017-11-12,34,2,0,70.83
414,2017-11-12,35,2,0,13.15
414,2017-11-12,36,2,1,93.19
414,2017-11-12,37,2,1,3.94
414,2017-11-12,38,2,1,0.76
414,2017-11-12,39,1,0,10.41
414,2017-11-12,40,1,1,0.01
414,2017-11-12,41,2,0,13.86
414,2017-11-12,42,2,0,8.59
414,2017-11-12,43,2,0,9.23
414,2017-11-12,44,2,1,124.3
414,2017-11-12,45,1,0,20.21
414,2017-11-12,51,1,0,44.71
414,2017-11-13,2,1,0,46.79
414,2017-11-13,3,2,1,84.12
414,2017-11-13,4,2,1,1.33
414,2017-11-13,5,2,1,11.62
414,2017-11-13,6,2,1,0.48
414,2017-11-13,7,2,1,3.42
414,2017-11-13,10,1,1,91.38
414,2017-11-13,11,1,0,7.64
414,2017-11-13,12,2,1,4.26
414,2017-11-13,13,2,0,6.58
414,2017-11-13,14,1,1,54.83
414,2017-11-13,15,1,0,13.62
414,2017-11-13,17,1,1,46.21
414,2017-11-13,18,1,1,10.56
414,2017-11-13,19,2,0,98.5
414,2017-11-13,20,1,1,58.74
414,2017-11-13,21,2,1,18.42
414,2017-11-13,22,2,1,6.01
414,2017-11-13,23,1,0,79.81
414,2017-11-13,24,1,1,9.71
414,2017-11-13,25,1,1,7.69
414,2017-11-13,26,1,1,2.44
414,2017-11-13,27,1,1,19.17
414,2017-11-13,28,2,0,69.17
414,2017-11-13,29,1,1,48.59
414,2017-11-13,30,1,1,4.09
414,2017-11-13,31,2,0,37.41
414,2017-11-13,32,2,0,5.74
414,2017-11-13,33,1,1,11.36
414,2017-11-13,34,1,1,18.5
414,2017-11-13,35,2,0,34.21
414,2017-11-13,36,2,1,4.43
414,2017-11-13,37,2,1,1.13
414,2017-11-13,38,2,1,7.16
414,2017-11-13,39,1,1,3.37
414,2017-11-13,40,2,0,53.11
414,2017-11-13,41,2,0,17.66
414,2017-11-13,42,1,1,101.41
414,2017-11-13,43,1,1,10.23
414,2017-11-13,44,2,0,12.04
414,2017-11-13,45,2,1,1.1
414,2017-11-13,46,2,0,1.82
414,2017-11-13,47,2,1,10.98
414,2017-11-13,52,1,1,4.44
414,2017-11-14,1,1,0,10.25
414,2017-11-14,2,2,1,44.87
414,2017-11-14,3,2,1,9.61
414,2017-11-14,4,2,0,7.95
414,2017-11-14,5,2,1,8.25
414,2017-11-14,6,2,1,15.43
414,2017-11-14,7,1,1,7.9
414,2017-11-14,8,1,0,12.25
414,2017-11-14,9,1,1,20.55
414,2017-11-14,10,1,1,9.09
414,2017-11-14,11,1,1,1.72
414,2017-11-14,12,2,0,85.09
414,2017-11-14,13,1,1,48.25
414,2017-11-14,14,2,0,19.06
414,2017-11-14,15,2,1,2.36
414,2017-11-14,16,2,1,14.27
414,2017-11-14,17,2,1,17.88
414,2017-11-14,18,2,0,16.57
414,2017-11-14,19,1,0,29.93
414,2017-11-14,20,2,0,17.74
414,2017-11-14,21,1,1,86.49
414,2017-11-14,22,1,1,9.09
414,2017-11-14,23,2,0,55.78
414,2017-11-14,24,2,1,44.54
414,2017-11-14,25,1,1,14.53
414,2017-11-14,26,1,1,4.54
414,2017-11-14,27,2,1,8.99
414,2017-11-14,29,2,1,46.87
414,2017-11-14,30,1,0,140.13
414,2017-11-14,31,2,1,48.47
414,2017-11-14,32,2,1,18.63
414,2017-11-14,33,2,1,13.24
414,2017-11-14,34,1,0,79.54
414,2017-11-14,35,1,0,18.74
414,2017-11-14,36,2,1,1.66
414,2017-11-14,37,1,0,15.08
414,2017-11-14,40,2,1,130.54
414,2017-11-14,47,1,0,285.44
414,2017-11-14,52,1,1,264.88
414,2017-11-15,1,2,1,21.11
414,2017-11-15,2,2,1,3.6
414,2017-11-15,3,1,0,18.64
414,2017-11-15,4,1,1,0.43
414,2017-11-15,5,2,0,11.9
414,2017-11-15,6,1,1,57.35
414,2017-11-15,7,1,1,2.01
414,2017-11-15,8,2,0,56.6
414,2017-11-15,9,1,1,66.62
414,2017-11-15,10,1,1,0.06
414,2017-11-15,11,2,0,52.68
414,2017-11-15,12,1,1,2.47
414,2017-11-15,13,2,1,0.09
414,2017-11-15,14,2,1,19.89
414,2017-11-15,15,1,0,10.96
414,2017-11-15,16,2,1,0.3
414,2017-11-15,17,2,0,0.47
414,2017-11-15,18,2,1,45.95
414,2017-11-15,19,2,1,1.91
414,2017-11-15,20,2,0,17.89
414,2017-11-15,21,1,0,7
414,2017-11-15,22,2,1,1.09
414,2017-11-15,23,2,1,7.48
414,2017-11-15,24,2,1,12.66
414,2017-11-15,25,2,1,23.2
414,2017-11-15,26,2,1,1.25
414,2017-11-15,27,2,0,18.81
414,2017-11-15,29,1,1,42.42
414,2017-11-15,30,2,1,2.02
414,2017-11-15,31,1,1,1.78
414,2017-11-15,32,1,1,4.82
414,2017-11-15,33,1,1,3.07
414,2017-11-15,34,1,1,6.74
414,2017-11-15,35,1,1,8.53
414,2017-11-15,36,1,1,16.69
414,2017-11-15,37,2,0,107.87
414,2017-11-15,38,1,0,2.56
414,2017-11-15,39,2,1,4.89
414,2017-11-15,40,1,0,6.68
414,2017-11-15,41,1,1,8.47
414,2017-11-15,42,2,0,0.53
414,2017-11-15,43,2,1,43.28
414,2017-11-15,44,1,0,14.93
414,2017-11-15,45,1,1,3.66
414,2017-11-15,46,1,1,1.69
414,2017-11-15,47,2,1,10.39
414,2017-11-15,48,2,1,29.24
414,2017-11-15,50,1,1,2.96
414,2017-11-16,3,2,1,109.61
414,2017-11-16,4,1,1,16.12
414,2017-11-16,5,2,0,15.28
414,2017-11-16,6,1,1,4.71
414,2017-11-16,7,2,0,18.16
414,2017-11-16,8,2,1,49.95
414,2017-11-16,9,1,1,0.83
414,2017-11-16,10,2,0,33.12
414,2017-11-16,11,1,1,46.52
414,2017-11-16,12,2,1,16.47
414,2017-11-16,13,2,1,0.91
414,2017-11-16,14,2,1,23.18
414,2017-11-16,15,2,1,3.31
414,2017-11-16,16,2,0,16.89
414,2017-11-16,17,2,1,2.92
414,2017-11-16,18,2,1,14.83
414,2017-11-16,19,2,0,22.89
414,2017-11-16,20,2,0,0.36
414,2017-11-16,21,1,1,43.29
414,2017-11-16,22,2,0,19.36
414,2017-11-16,23,2,1,1.07
414,2017-11-16,24,2,1,10.07
414,2017-11-16,25,2,0,18.24
414,2017-11-16,26,1,1,2.05
414,2017-11-16,27,1,1,4.72
414,2017-11-16,28,2,0,29.8
414,2017-11-16,29,1,1,44.98
414,2017-11-16,30,1,1,4.93
414,2017-11-16,31,1,1,3.55
414,2017-11-16,32,2,0,48.87
414,2017-11-16,33,2,0,7.67
414,2017-11-16,34,1,1,84.2
414,2017-11-16,35,2,1,13.43
414,2017-11-16,36,1,0,2.1
414,2017-11-16,37,1,0,17.4
414,2017-11-16,39,2,1,135.37
414,2017-11-16,40,1,0,70.39
414,2017-11-16,41,1,0,3.51
414,2017-11-16,42,2,1,91.21
414,2017-11-16,43,1,0,16.89
414,2017-11-16,47,1,1,1.97
414,2017-11-16,48,1,1,20.84
414,2017-11-16,49,1,1,0.1
414,2017-11-16,50,1,1,8.16
414,2017-11-17,4,1,1,140.28
414,2017-11-17,5,2,0,156.16
414,2017-11-17,7,2,0,42.9
414,2017-11-17,8,2,0,2.82
414,2017-11-17,9,2,0,19.15
414,2017-11-17,10,2,0,2.32
414,2017-11-17,11,1,1,252.19
414,2017-11-17,12,1,1,2.8
414,2017-11-17,13,1,1,3.67
414,2017-11-17,14,1,1,1.22
414,2017-11-17,15,2,0,59.47
414,2017-11-17,16,2,0,4.72
414,2017-11-17,17,1,1,105.98
414,2017-11-17,18,2,0,35.03
414,2017-11-17,19,1,1,43.24
414,2017-11-17,20,2,0,13.85
414,2017-11-17,21,2,0,0.7
414,2017-11-17,22,2,0,0.18
414,2017-11-17,23,1,1,125.77
414,2017-11-17,24,1,1,0.82
414,2017-11-17,25,1,1,0.96
414,2017-11-17,26,1,1,8.8
414,2017-11-17,27,1,1,4.08
414,2017-11-17,28,1,1,16.82
414,2017-11-17,29,2,0,100.32
414,2017-11-17,30,1,1,43.35
414,2017-11-17,31,2,0,13.55
414,2017-11-17,32,2,0,0.74
414,2017-11-17,33,2,0,3.03
414,2017-11-17,34,2,0,28.9
414,2017-11-17,35,2,0,20.64
414,2017-11-17,36,2,1,208.19
414,2017-11-17,37,2,1,1.16
414,2017-11-17,38,2,1,19.7
414,2017-11-17,39,1,1,1.79
414,2017-11-17,40,1,1,1.68
414,2017-11-17,41,2,0,90.04
414,2017-11-17,42,2,1,54.92
414,2017-11-17,43,1,0,30.93
414,2017-11-17,44,1,1,43.31
414,2017-11-17,48,1,1,0.47
414,2017-11-17,52,1,1,2.83
414,2017-11-20,2,1,1,30.62
414,2017-11-20,3,1,1,7.59
414,2017-11-20,4,1,1,0.72
414,2017-11-20,5,2,0,78.59
414,2017-11-20,6,1,1,28.27
414,2017-11-20,7,2,0,15.67
414,2017-11-20,8,2,1,26.29
414,2017-11-20,9,2,0,18.54
414,2017-11-20,10,1,1,33.85
414,2017-11-20,11,1,1,0.06
414,2017-11-20,12,1,1,1.34
414,2017-11-20,13,2,0,42.58
414,2017-11-20,14,2,1,0.49
414,2017-11-20,15,1,1,0.79
414,2017-11-20,16,1,1,0.57
414,2017-11-20,17,2,1,9.06
414,2017-11-20,18,2,0,46.44
414,2017-11-20,19,1,1,27.08
414,2017-11-20,20,2,1,12.22
414,2017-11-20,21,2,1,0.76
414,2017-11-20,22,2,0,0.47
414,2017-11-20,23,1,1,28.22
414,2017-11-20,24,2,0,16.14
414,2017-11-20,25,2,0,0.97
414,2017-11-20,26,1,1,53.07
414,2017-11-20,27,1,1,3.09
414,2017-11-20,28,2,0,31.2
414,2017-11-20,29,1,1,26.15
414,2017-11-20,30,1,1,0.23
414,2017-11-20,31,1,1,3.55
414,2017-11-20,32,2,0,38.29
414,2017-11-20,34,2,1,28.53
414,2017-11-20,35,2,0,2.53
414,2017-11-20,36,1,1,3.58
414,2017-11-20,37,2,0,0.42
414,2017-11-20,38,2,0,0.4
414,2017-11-20,39,2,0,8.07
414,2017-11-20,40,2,0,1.66
414,2017-11-20,42,2,0,33.66
414,2017-11-20,44,1,1,0.85
414,2017-11-20,45,1,1,2.86
414,2017-11-20,47,1,1,4.83
414,2017-11-20,48,1,1,1.47
414,2017-11-20,49,1,1,1.85
414,2017-11-20,50,1,1,9.28
414,2017-11-20,1,2,0,
414,2017-11-21,5,1,0,111.33
414,2017-11-21,6,1,0,6.55
414,2017-11-21,8,2,1,185.36
414,2017-11-21,9,1,0,42.27
414,2017-11-21,10,1,1,27.42
414,2017-11-21,11,2,0,14.07
414,2017-11-21,13,1,1,27.44
414,2017-11-21,14,2,0,43.4
414,2017-11-21,15,1,0,3.1
414,2017-11-21,16,2,1,66.32
414,2017-11-21,18,1,1,30.2
414,2017-11-21,19,1,1,1.7
414,2017-11-21,21,1,0,106.3
414,2017-11-21,22,1,1,60.01
414,2017-11-21,25,2,0,72.97
414,2017-11-21,27,2,1,118.65
414,2017-11-21,28,1,0,60.49
414,2017-11-21,29,1,0,4.06
414,2017-11-21,30,1,1,59.23
414,2017-11-21,31,2,0,18.38
414,2017-11-21,33,1,1,58.05
414,2017-11-21,34,2,0,43.03
414,2017-11-21,36,2,1,66.34
414,2017-11-21,37,1,0,57.49
414,2017-11-21,39,2,1,59.01
414,2017-11-21,42,2,0,97.19
414,2017-11-21,44,1,1,107.24
414,2017-11-21,45,2,0,40.27
414,2017-11-21,46,2,1,29.47
414,2017-11-21,49,2,1,65.99
414,2017-11-21,51,1,0,96.42
414,2017-11-22,9,2,1,212.52
414,2017-11-22,10,1,0,223.78
414,2017-11-22,11,1,0,0.03
414,2017-11-22,12,2,1,60.88
414,2017-11-22,14,1,1,29.72
414,2017-11-22,16,2,1,36.24
414,2017-11-22,17,1,0,12.63
414,2017-11-22,18,2,1,6.22
414,2017-11-22,19,2,1,1.11
414,2017-11-22,20,2,1,2.15
414,2017-11-22,21,1,1,3.57
414,2017-11-22,22,1,1,2.25
414,2017-11-22,23,2,0,14.17
414,2017-11-22,24,1,1,5.85
414,2017-11-22,25,2,0,17.28
414,2017-11-22,26,1,0,3.56
414,2017-11-22,27,2,1,55.55
414,2017-11-22,28,1,0,16.53
414,2017-11-22,29,2,1,40.18
414,2017-11-22,30,2,1,5
414,2017-11-22,33,1,0,66.04
414,2017-11-22,34,2,0,0.09
414,2017-11-22,35,2,1,33.94
414,2017-11-22,36,2,1,1.92
414,2017-11-22,40,1,0,86.82
414,2017-11-22,41,2,1,1.13
414,2017-11-22,42,2,1,1.2
414,2017-11-22,44,1,0,30.06
414,2017-11-22,45,1,1,2.21
414,2017-11-22,46,2,0,16.49
414,2017-11-22,47,2,1,26.94
414,2017-11-22,48,1,0,24.53
414,2017-11-22,49,1,1,27.86
414,2017-11-22,55,1,1,3.18
414,2017-11-23,2,2,1,38.87
414,2017-11-23,5,1,0,115.08
414,2017-11-23,7,2,1,118.74
414,2017-11-23,8,2,1,14.12
414,2017-11-23,9,2,1,10.94
414,2017-11-23,10,1,0,12.58
414,2017-11-23,11,1,1,1.06
414,2017-11-23,13,2,1,26.4
414,2017-11-23,15,1,1,34.28
414,2017-11-23,16,2,0,105.68
414,2017-11-23,17,2,1,32.4
414,2017-11-23,18,1,0,28.95
414,2017-11-23,19,2,1,37.39
414,2017-11-23,20,1,1,5.72
414,2017-11-23,21,1,1,4.47
414,2017-11-23,22,1,1,0.21
414,2017-11-23,23,2,0,12.84
414,2017-11-23,24,2,1,6.5
414,2017-11-23,25,1,0,10.57
414,2017-11-23,26,1,1,4.17
414,2017-11-23,27,1,1,0.02
414,2017-11-23,29,1,1,29.93
414,2017-11-23,30,1,1,1.94
414,2017-11-23,31,2,0,12.64
414,2017-11-23,34,1,0,57.5
414,2017-11-23,35,2,1,1.27
414,2017-11-23,36,2,1,4.04
414,2017-11-23,37,1,1,8.49
414,2017-11-23,38,2,0,41.63
414,2017-11-23,39,2,1,0.01
414,2017-11-23,40,2,1,0.3
414,2017-11-23,41,2,1,2.72
414,2017-11-23,42,2,1,2.68
414,2017-11-23,43,2,1,7.54
414,2017-11-23,44,1,1,4.34
414,2017-11-23,45,2,0,14.02
414,2017-11-23,47,1,1,40.79
414,2017-11-23,48,2,0,7.07
414,2017-11-23,49,1,0,9.19
414,2017-11-23,50,1,0,13.92
414,2017-11-24,1,2,0,2.41
414,2017-11-24,2,2,1,29.3
414,2017-11-24,3,2,0,13.43
414,2017-11-24,4,1,1,6.16
414,2017-11-24,5,1,0,10.41
414,2017-11-24,6,2,1,29.85
414,2017-11-24,7,2,1,14.62
414,2017-11-24,8,1,0,8.75
414,2017-11-24,9,1,1,0.29
414,2017-11-24,10,2,0,10.59
414,2017-11-24,11,1,1,4.45
414,2017-11-24,12,2,0,0.63
414,2017-11-24,13,2,1,4.01
414,2017-11-24,14,2,1,0.25
414,2017-11-24,15,2,1,3
414,2017-11-24,16,2,1,8.6
414,2017-11-24,17,1,1,11.12
414,2017-11-24,18,1,0,0
414,2017-11-24,19,2,0,9.02
414,2017-11-24,20,2,1,0.13
414,2017-11-24,21,1,1,11.22
414,2017-11-24,22,1,1,1.3
414,2017-11-24,23,2,0,11.28
414,2017-11-24,24,2,0,1.51
414,2017-11-24,25,2,1,32.15
414,2017-11-24,26,2,0,8.89
414,2017-11-24,28,2,1,31.34
414,2017-11-24,29,1,1,1.92
414,2017-11-24,30,1,1,0.46
414,2017-11-24,31,2,0,4.67
414,2017-11-24,32,1,1,4.49
414,2017-11-24,33,2,0,6.83
414,2017-11-24,35,1,1,28.34
414,2017-11-24,36,1,0,53.02
414,2017-11-24,37,2,1,0.37
414,2017-11-24,38,1,1,3.21
414,2017-11-24,39,1,1,0.25
414,2017-11-24,40,2,0,30.9
414,2017-11-24,41,1,1,39.06
414,2017-11-24,42,2,0,14.24
414,2017-11-24,43,2,1,14.09
414,2017-11-24,46,1,1,1.25
414,2017-11-24,55,1,1,5.79
414,2017-11-25,1,2,0,5.14
414,2017-11-25,2,1,1,26.36
414,2017-11-25,3,1,1,1.11
414,2017-11-25,4,1,1,0.4
414,2017-11-25,5,2,0,38.89
414,2017-11-25,6,2,1,40.24
414,2017-11-25,7,2,1,5.88
414,2017-11-25,8,1,1,0.43
414,2017-11-25,9,1,1,0.04
414,2017-11-25,10,2,0,10.31
414,2017-11-25,11,1,1,8.56
414,2017-11-25,12,2,0,11.16
414,2017-11-25,13,1,1,0.5
414,2017-11-25,14,1,1,0.98
414,2017-11-25,15,1,1,0.7
414,2017-11-25,16,1,1,11.7
414,2017-11-25,17,1,1,9.41
414,2017-11-25,18,2,0,80.97
414,2017-11-25,19,2,1,0.19
414,2017-11-25,20,2,1,3.83
414,2017-11-25,21,1,1,0.36
414,2017-11-25,22,1,1,2.27
414,2017-11-25,23,2,0,13.74
414,2017-11-25,24,2,1,0.28
414,2017-11-25,25,2,1,5.71
414,2017-11-25,26,1,1,3.95
414,2017-11-25,27,1,1,0.84
414,2017-11-25,28,2,0,14.1
414,2017-11-25,29,1,1,1.55
414,2017-11-25,30,1,1,2.07
414,2017-11-25,31,1,1,0.02
414,2017-11-25,32,1,1,0.63
414,2017-11-25,34,2,1,29.9
414,2017-11-25,35,1,1,1.61
414,2017-11-25,36,2,0,14.08
414,2017-11-25,37,1,1,5.56
414,2017-11-25,38,2,1,5.21
414,2017-11-25,39,2,0,5.91
414,2017-11-25,40,2,1,2.1
414,2017-11-25,41,1,1,1.02
414,2017-11-25,42,2,1,8.6
414,2017-11-25,44,2,0,59.78
414,2017-11-25,45,2,1,52.93
414,2017-11-25,46,2,0,7.84
414,2017-11-25,47,1,0,7.39
414,2017-11-25,48,1,1,27.21
414,2017-11-25,49,1,1,0.72
414,2017-11-25,50,2,0,8.78
414,2017-11-26,1,2,1,11.63
414,2017-11-26,2,1,1,7.05
414,2017-11-26,3,1,1,7.5
414,2017-11-26,4,2,0,66.32
414,2017-11-26,5,1,1,29.52
414,2017-11-26,6,2,1,12.27
414,2017-11-26,7,2,1,3.61
414,2017-11-26,8,1,1,2.18
414,2017-11-26,9,1,1,3.31
414,2017-11-26,10,2,1,5.38
414,2017-11-26,11,1,0,101.69
414,2017-11-26,12,2,1,8.34
414,2017-11-26,13,2,1,8.39
414,2017-11-26,14,2,0,4.85
414,2017-11-26,15,2,1,7.34
414,2017-11-26,16,2,0,7.45
414,2017-11-26,17,1,1,9.93
414,2017-11-26,18,2,0,12.11
414,2017-11-26,19,1,1,2.65
414,2017-11-26,21,2,1,30.29
414,2017-11-26,22,1,1,2.06
414,2017-11-26,23,2,1,6.7
414,2017-11-26,24,2,0,85.91
414,2017-11-26,25,1,1,27.29
414,2017-11-26,26,2,1,11.83
414,2017-11-26,27,1,1,0.75
414,2017-11-26,28,2,1,6.19
414,2017-11-26,29,2,1,5.69
414,2017-11-26,30,2,1,12.61
414,2017-11-26,31,2,0,9.88
414,2017-11-26,32,1,1,4.52
414,2017-11-26,34,1,1,31.79
414,2017-11-26,37,1,1,54.29
414,2017-11-26,38,2,1,3.22
414,2017-11-26,39,2,1,13.34
414,2017-11-26,40,1,1,10.14
414,2017-11-26,41,1,1,2.91
414,2017-11-26,42,2,1,3.3
414,2017-11-26,43,1,1,2.94
414,2017-11-26,45,2,1,32.03
414,2017-11-26,48,1,1,30.23
414,2017-11-26,51,1,1,10.27
414,2017-11-27,5,2,1,91.26
414,2017-11-27,6,2,1,8.33
414,2017-11-27,7,2,1,3.4
414,2017-11-27,9,2,0,30.22
414,2017-11-27,10,2,1,8.74
414,2017-11-27,11,2,1,3.69
414,2017-11-27,13,2,1,31.09
414,2017-11-27,14,2,1,2.91
414,2017-11-27,15,2,1,5.29
414,2017-11-27,16,2,1,0.24
414,2017-11-27,17,1,0,123.71
414,2017-11-27,18,2,1,30.42
414,2017-11-27,19,1,1,4.28
414,2017-11-27,20,2,1,6.19
414,2017-11-27,21,2,1,9.16
414,2017-11-27,22,2,0,8.17
414,2017-11-27,25,2,1,50.06
414,2017-11-27,26,1,1,9.09
414,2017-11-27,27,1,1,1.36
414,2017-11-27,28,2,0,4.12
414,2017-11-27,29,2,1,9.24
414,2017-11-27,31,2,0,28.78
414,2017-11-27,34,1,1,43.18
414,2017-11-27,35,2,0,8.56
414,2017-11-27,37,2,1,27.04
414,2017-11-27,41,1,0,50.11
414,2017-11-27,48,1,1,29.33
414,2017-11-27,49,1,1,0.77
414,2017-11-27,53,1,0,20.36
414,2017-11-28,2,2,1,28.04
414,2017-11-28,3,2,1,4.12
414,2017-11-28,6,2,1,43.36
414,2017-11-28,7,2,1,0.53
414,2017-11-28,9,1,1,29.41
414,2017-11-28,10,2,1,3.28
414,2017-11-28,12,2,1,21.34
414,2017-11-28,14,2,1,24.07
414,2017-11-28,15,2,0,5.44
414,2017-11-28,16,1,1,3.33
414,2017-11-28,17,1,1,1.09
414,2017-11-28,18,2,0,9.12
414,2017-11-28,19,2,1,6.72
414,2017-11-28,20,2,0,8.59
414,2017-11-28,21,2,0,2.04
414,2017-11-28,22,2,1,22.15
414,2017-11-28,23,1,1,0.2
414,2017-11-28,24,1,0,28.9
414,2017-11-28,25,1,0,5.17
414,2017-11-28,26,1,1,42.79
414,2017-11-28,27,1,1,0.26
414,2017-11-28,28,2,0,8.36
414,2017-11-28,30,1,1,21.96
414,2017-11-28,31,2,0,9.07
414,2017-11-28,33,2,1,21.82
414,2017-11-28,35,1,1,22.23
414,2017-11-28,36,2,0,34
414,2017-11-28,37,1,1,24.97
414,2017-11-28,38,1,1,0.85
414,2017-11-28,39,2,1,4.26
414,2017-11-28,41,2,1,23.48
414,2017-11-28,43,1,0,99.94
414,2017-11-28,44,1,1,48.05
414,2017-11-28,45,1,1,0.52
414,2017-11-28,46,1,1,5.62
414,2017-11-28,49,1,1,23.43
414,2017-11-29,2,2,1,23
414,2017-11-29,3,2,1,1.25
414,2017-11-29,4,1,0,51.07
414,2017-11-29,5,2,1,25.67
414,2017-11-29,7,2,1,25.65
414,2017-11-29,8,2,1,3.15
414,2017-11-29,10,2,1,25.36
414,2017-11-29,11,1,0,106.32
414,2017-11-29,12,1,1,28.41
414,2017-11-29,13,2,0,6.02
414,2017-11-29,14,2,1,2.19
414,2017-11-29,15,1,0,5.18
414,2017-11-29,16,2,1,0.61
414,2017-11-29,17,1,1,1.61
414,2017-11-29,18,1,1,3.31
414,2017-11-29,19,1,1,0.53
414,2017-11-29,20,2,0,6.61
414,2017-11-29,21,1,1,4.97
414,2017-11-29,22,1,1,2.14
414,2017-11-29,23,1,1,2.24
414,2017-11-29,24,2,0,6.43
414,2017-11-29,26,1,1,21.16
414,2017-11-29,27,1,1,0.04
414,2017-11-29,28,1,1,0.53
414,2017-11-29,29,2,1,4.5
414,2017-11-29,30,2,1,0.13
414,2017-11-29,31,2,1,4.19
414,2017-11-29,32,1,1,1.8
414,2017-11-29,33,1,1,4
414,2017-11-29,34,2,1,2.9
414,2017-11-29,35,2,1,8.74
414,2017-11-29,36,1,1,3.19
414,2017-11-29,37,1,1,0.51
414,2017-11-29,38,2,1,9.32
414,2017-11-29,39,2,0,206.07
414,2017-11-29,40,2,0,0.89
414,2017-11-29,41,1,1,2.34
414,2017-11-29,42,2,0,1.94
414,2017-11-29,44,2,1,21.65
414,2017-11-29,47,2,1,49.79
415,2017-11-11,1,1,0,3.79
415,2017-11-11,2,2,1,46.09
415,2017-11-11,3,2,1,4.93
415,2017-11-11,4,2,1,2.23
415,2017-11-11,5,2,1,10.09
415,2017-11-11,6,2,1,0.83
415,2017-11-11,7,1,0,27.14
415,2017-11-11,8,1,1,1.36
415,2017-11-11,9,1,1,0.03
415,2017-11-11,10,1,1,0.05
415,2017-11-11,11,1,1,0.1
415,2017-11-11,12,2,0,47.61
415,2017-11-11,13,1,1,41.16
415,2017-11-11,14,2,1,9.34
415,2017-11-11,15,2,0,31.48
415,2017-11-11,16,2,0,1.72
415,2017-11-11,17,2,1,85.48
415,2017-11-11,19,1,0,67.3
415,2017-11-11,20,2,1,82.41
415,2017-11-11,21,1,0,4.56
415,2017-11-11,22,1,1,0.89
415,2017-11-11,23,2,0,12.66
415,2017-11-11,24,2,0,0
415,2017-11-11,25,1,1,86.51
415,2017-11-11,26,1,0,12.25
415,2017-11-11,27,2,0,1.83
415,2017-11-11,28,2,0,2.13
415,2017-11-11,29,2,1,1.05
415,2017-11-11,30,1,1,3.42
415,2017-11-11,31,2,0,19.93
415,2017-11-11,32,2,0,7.95
415,2017-11-11,33,2,0,3.39
415,2017-11-11,34,1,1,126.18
415,2017-11-11,35,1,0,22.02
415,2017-11-11,36,2,1,0.87
415,2017-11-11,37,1,1,1.59
415,2017-11-11,38,1,1,2.99
415,2017-11-11,39,2,0,18.65
415,2017-11-11,40,2,1,0.2
415,2017-11-11,41,1,1,4.41
415,2017-11-11,42,1,1,1.7
415,2017-11-11,43,2,0,15.36
415,2017-11-11,44,2,1,41.75
415,2017-11-11,47,1,1,0.6
415,2017-11-11,49,1,1,1.28
415,2017-11-11,52,1,1,8.36
415,2017-11-12,2,2,1,61.01
415,2017-11-12,3,2,1,6.61
415,2017-11-12,4,2,1,14.41
415,2017-11-12,5,2,0,23.73
415,2017-11-12,6,2,1,0.96
415,2017-11-12,7,1,1,4.69
415,2017-11-12,8,1,1,0.51
415,2017-11-12,9,1,1,5.95
415,2017-11-12,10,1,1,0.95
415,2017-11-12,11,1,0,16.6
415,2017-11-12,12,2,1,0.46
415,2017-11-12,13,1,1,2.33
415,2017-11-12,14,2,0,6.36
415,2017-11-12,15,2,1,1.51
415,2017-11-12,16,2,1,13.37
415,2017-11-12,17,2,1,5.23
415,2017-11-12,18,2,0,10.88
415,2017-11-12,19,1,1,2.39
415,2017-11-12,20,2,0,6.05
415,2017-11-12,21,1,1,0.29
415,2017-11-12,22,1,1,0.97
415,2017-11-12,23,2,0,6.62
415,2017-11-12,24,2,1,4.24
415,2017-11-12,25,1,1,2.14
415,2017-11-12,26,1,1,2.46
415,2017-11-12,27,2,0,7.64
415,2017-11-12,28,2,1,1.39
415,2017-11-12,29,2,1,0.13
415,2017-11-12,30,1,1,1.69
415,2017-11-12,31,2,0,12.26
415,2017-11-12,32,2,1,0.5
415,2017-11-12,33,2,0,1.81
415,2017-11-12,34,1,1,41.15
415,2017-11-12,35,1,0,5.56
415,2017-11-12,36,2,1,0.8
415,2017-11-12,37,1,1,0.4
415,2017-11-12,38,1,1,0.59
415,2017-11-12,39,2,0,16.82
415,2017-11-12,40,2,0,0.17
415,2017-11-12,41,1,1,46.25
415,2017-11-12,42,1,1,10.72
415,2017-11-12,43,2,1,0.35
415,2017-11-12,44,2,0,10.37
415,2017-11-12,47,1,1,18.21
415,2017-11-12,49,1,1,2.43
415,2017-11-12,52,1,0,2.32
415,2017-11-14,2,1,0,42.85
415,2017-11-14,3,2,1,111.85
415,2017-11-14,4,2,1,12.46
415,2017-11-14,5,1,0,71.06
415,2017-11-14,6,1,0,27.97
415,2017-11-14,7,2,1,2.1
415,2017-11-14,8,1,1,1.45
415,2017-11-14,9,1,1,0.4
415,2017-11-14,10,2,1,6.05
415,2017-11-14,11,1,0,18.61
415,2017-11-14,12,2,1,1.72
415,2017-11-14,13,2,1,0.55
415,2017-11-14,14,2,1,3.31
415,2017-11-14,15,1,1,2.82
415,2017-11-14,16,1,0,1.68
415,2017-11-14,17,1,1,6.25
415,2017-11-14,18,1,1,0.86
415,2017-11-14,19,2,0,8.97
415,2017-11-14,20,2,1,6.65
415,2017-11-14,21,1,1,1.48
415,2017-11-14,22,1,1,0.61
415,2017-11-14,23,1,0,7.06
415,2017-11-14,24,1,1,7.75
415,2017-11-14,25,2,0,13.86
415,2017-11-14,26,1,1,2.91
415,2017-11-14,27,1,1,1.16
415,2017-11-14,28,1,0,4.02
415,2017-11-14,29,1,1,12.53
415,2017-11-14,30,2,0,1.48
415,2017-11-14,31,2,1,0.89
415,2017-11-14,32,1,1,4.4
415,2017-11-14,33,1,1,0.31
415,2017-11-14,34,2,1,3.04
415,2017-11-14,35,2,1,2.63
415,2017-11-14,36,2,1,0.96
415,2017-11-14,37,1,0,6.63
415,2017-11-14,38,1,1,8.42
415,2017-11-14,39,2,1,4
415,2017-11-14,40,2,0,4.05
415,2017-11-14,41,2,1,6.26
415,2017-11-14,42,1,1,0.32
415,2017-11-14,43,2,1,14.6
415,2017-11-14,44,2,1,19.4
415,2017-11-14,45,2,1,22.09
415,2017-11-14,46,1,0,69.03
415,2017-11-14,48,2,1,88.98
415,2017-11-14,49,2,1,2.09
415,2017-11-14,51,1,0,78.71
415,2017-11-15,1,1,0,1.47
415,2017-11-15,2,2,1,42.38
415,2017-11-15,3,2,1,2.01
415,2017-11-15,4,2,1,2.15
415,2017-11-15,5,2,0,8.58
415,2017-11-15,6,2,1,3.15
415,2017-11-15,7,1,1,5.24
415,2017-11-15,8,1,1,2.95
415,2017-11-15,9,1,0,3.9
415,2017-11-15,10,1,1,1.14
415,2017-11-15,11,1,1,4.17
415,2017-11-15,12,2,1,16.23
415,2017-11-15,13,1,1,2.57
415,2017-11-15,14,2,0,17.37
415,2017-11-15,15,2,1,1.13
415,2017-11-15,16,2,1,4.37
415,2017-11-15,17,2,1,3.34
415,2017-11-15,18,2,0,5.88
415,2017-11-15,19,1,0,2.97
415,2017-11-15,20,2,1,54.6
415,2017-11-15,21,1,0,11.3
415,2017-11-15,22,1,1,6.18
415,2017-11-15,23,2,1,2.89
415,2017-11-15,24,2,1,1.91
415,2017-11-15,25,1,1,0.14
415,2017-11-15,26,1,1,1.74
415,2017-11-15,27,2,0,9.68
415,2017-11-15,28,2,1,10.69
415,2017-11-15,29,2,1,1.2
415,2017-11-15,30,1,1,0.15
415,2017-11-15,31,2,1,13.17
415,2017-11-15,32,2,1,0.56
415,2017-11-15,33,2,0,4.96
415,2017-11-15,34,1,1,4.64
415,2017-11-15,35,1,1,1.55
415,2017-11-15,36,2,0,14.34
415,2017-11-15,37,1,1,12.93
415,2017-11-15,38,1,1,0.92
415,2017-11-15,39,2,0,13.64
415,2017-11-15,40,2,1,2.39
415,2017-11-15,41,1,1,1.25
415,2017-11-15,42,1,1,0.11
415,2017-11-15,43,2,0,10.19
415,2017-11-15,44,2,1,2.63
415,2017-11-15,47,1,1,1.64
415,2017-11-15,49,1,1,3.93
415,2017-11-15,52,1,1,0.58
415,2017-11-16,1,1,0,4.65
415,2017-11-16,2,2,1,50.34
415,2017-11-16,3,2,1,4.1
415,2017-11-16,4,2,1,5.17
415,2017-11-16,5,2,1,5.56
415,2017-11-16,6,2,1,1.29
415,2017-11-16,7,1,0,104.08
415,2017-11-16,9,1,1,42.76
415,2017-11-16,10,1,0,4.96
415,2017-11-16,11,1,0,11.18
415,2017-11-16,12,2,1,91.32
415,2017-11-16,13,1,0,33.44
415,2017-11-16,14,2,1,54.04
415,2017-11-16,15,2,1,18.55
415,2017-11-16,17,2,1,45.8
415,2017-11-16,18,2,1,2.19
415,2017-11-16,19,1,0,135.61
415,2017-11-16,20,2,1,45.14
415,2017-11-16,21,1,0,15.39
415,2017-11-16,22,1,0,3.22
415,2017-11-16,23,2,1,86.28
415,2017-11-16,24,2,1,10.38
415,2017-11-16,26,1,0,79.59
415,2017-11-16,28,2,1,126.06
415,2017-11-16,29,2,1,15.36
415,2017-11-16,30,1,0,84.39
415,2017-11-16,31,2,1,49.79
415,2017-11-16,32,2,1,4.61
415,2017-11-16,33,2,1,2.36
415,2017-11-16,34,1,0,61.37
415,2017-11-16,35,1,0,0.17
415,2017-11-16,36,2,1,82.37
415,2017-11-16,37,1,0,20.28
415,2017-11-16,39,2,1,50.14
415,2017-11-16,40,2,1,8.04
415,2017-11-16,41,1,0,86.93
415,2017-11-16,42,1,0,13.97
415,2017-11-16,43,2,1,83.57
415,2017-11-16,44,2,1,16.68
415,2017-11-16,49,1,0,85.96
415,2017-11-16,52,1,0,4.62
415,2017-11-17,1,1,0,7.75
415,2017-11-17,2,2,1,43.37
415,2017-11-17,3,2,1,2.32
415,2017-11-17,4,2,1,1.86
415,2017-11-17,5,2,1,0.5
415,2017-11-17,6,2,1,5.14
415,2017-11-17,7,1,0,73.87
415,2017-11-17,8,1,0,18.04
415,2017-11-17,9,2,1,91.33
415,2017-11-17,10,1,0,34.08
415,2017-11-17,11,2,1,51.16
415,2017-11-17,12,2,1,14.11
415,2017-11-17,13,2,1,11.38
415,2017-11-17,15,1,0,132.76
415,2017-11-17,16,2,1,89.9
415,2017-11-17,19,2,1,94.76
415,2017-11-17,20,2,1,13.4
415,2017-11-17,21,2,1,21.09
415,2017-11-17,22,1,0,196.06
415,2017-11-17,25,1,0,90.07
415,2017-11-17,26,1,0,15.35
415,2017-11-17,27,1,0,2.8
415,2017-11-17,28,1,0,17.78
415,2017-11-17,29,2,1,295.36
415,2017-11-17,30,2,1,3.49
415,2017-11-17,31,2,1,8.84
415,2017-11-17,32,1,0,58.24
415,2017-11-17,33,2,1,48.2
415,2017-11-17,34,1,0,38.91
415,2017-11-17,35,2,1,43.11
415,2017-11-17,36,2,1,7.57
415,2017-11-17,37,2,1,6
415,2017-11-17,39,2,1,45.02
415,2017-11-17,41,2,1,54.54
415,2017-11-17,42,2,1,1.8
415,2017-11-17,43,2,1,2.49
415,2017-11-17,44,1,0,201.94
415,2017-11-17,45,1,0,10.55
415,2017-11-17,46,1,0,4.79
415,2017-11-17,52,1,0,19.74
415,2017-11-20,1,2,1,4.08
415,2017-11-20,2,2,1,2.79
415,2017-11-20,6,1,0,111.58
415,2017-11-20,9,1,0,53.72
415,2017-11-20,11,2,1,210.81
415,2017-11-20,12,2,1,1.39
415,2017-11-20,15,2,1,55.9
415,2017-11-20,22,2,1,169.28
415,2017-11-20,25,2,1,61.48
415,2017-11-20,28,1,0,431.64
415,2017-11-20,29,2,1,82.15
415,2017-11-20,31,2,1,29.91
415,2017-11-20,32,2,1,13.74
415,2017-11-20,34,1,0,113.07
415,2017-11-20,35,2,1,57.73
415,2017-11-20,38,2,1,52.39
415,2017-11-20,39,2,1,4.87
415,2017-11-20,40,1,0,103.38
415,2017-11-20,41,1,0,1.86
415,2017-11-20,42,1,0,2.74
415,2017-11-20,43,2,1,88.82
415,2017-11-20,45,2,1,31.86
415,2017-11-21,1,1,0,8.34
415,2017-11-21,2,2,1,41.07
415,2017-11-21,3,1,0,27.26
415,2017-11-21,4,2,1,26.31
415,2017-11-21,5,1,0,18.9
415,2017-11-21,6,2,1,30.02
415,2017-11-21,7,1,0,16.08
415,2017-11-21,8,2,1,32.45
415,2017-11-21,9,2,1,8.32
415,2017-11-21,10,2,1,12.86
415,2017-11-21,12,1,0,88.9
415,2017-11-21,14,2,1,78.93
415,2017-11-21,15,2,1,3.79
415,2017-11-21,16,1,0,57.66
415,2017-11-21,17,2,1,29.59
415,2017-11-21,18,2,1,8.62
415,2017-11-21,19,1,0,42.77
415,2017-11-21,21,1,0,35.62
415,2017-11-21,25,2,1,162.06
415,2017-11-21,27,2,1,35.13
415,2017-11-21,28,2,1,6.93
415,2017-11-21,30,2,1,35.76
415,2017-11-21,31,2,1,0.74
415,2017-11-21,32,1,0,223.38
415,2017-11-21,33,2,1,32.26
415,2017-11-21,34,2,1,6.67
415,2017-11-21,35,2,1,2.82
415,2017-11-21,38,1,0,112.38
415,2017-11-21,39,2,1,89.12
415,2017-11-21,40,1,0,36.35
415,2017-11-21,42,1,0,35.51
415,2017-11-21,44,2,1,117.32
415,2017-11-21,46,2,1,37.81
415,2017-11-21,47,1,0,104.46
415,2017-11-22,1,1,0,5.96
415,2017-11-22,2,1,0,3.68
415,2017-11-22,3,1,0,13.28
415,2017-11-22,4,1,0,2.17
415,2017-11-22,6,1,0,28.72
415,2017-11-22,7,2,1,161.19
415,2017-11-22,8,1,0,26.82
415,2017-11-22,9,1,0,4.89
415,2017-11-22,10,1,0,12.8
415,2017-11-22,11,1,0,2.88
415,2017-11-22,13,2,1,141.05
415,2017-11-22,14,2,1,3.06
415,2017-11-22,15,1,0,65.6
415,2017-11-22,17,2,1,55.91
415,2017-11-22,18,2,1,3.12
415,2017-11-22,19,2,1,14.19
415,2017-11-22,20,1,0,82.99
415,2017-11-22,21,2,1,33.9
415,2017-11-22,22,1,0,28.69
415,2017-11-22,23,1,0,1.72
415,2017-11-22,24,1,0,7.83
415,2017-11-22,25,2,1,80.13
415,2017-11-22,26,1,0,16.08
415,2017-11-22,27,2,1,33.6
415,2017-11-22,28,2,1,14.24
415,2017-11-22,31,2,1,55.01
415,2017-11-22,32,2,1,3
415,2017-11-22,34,2,1,40.58
415,2017-11-22,35,1,0,180.3
415,2017-11-22,36,2,1,35.98
415,2017-11-22,37,2,1,12.12
415,2017-11-22,38,2,1,5.85
415,2017-11-22,39,1,0,72.68
415,2017-11-22,40,1,0,2.01
415,2017-11-22,41,1,0,4.71
415,2017-11-22,42,2,1,80.62
415,2017-11-22,43,2,1,2.96
415,2017-11-22,44,2,1,14.3
415,2017-11-22,45,2,1,14.83
415,2017-11-22,46,2,1,4.97
415,2017-11-22,49,2,1,41.28
415,2017-11-22,50,2,1,8.89
415,2017-11-23,1,1,0,7.69
415,2017-11-23,2,2,1,33.88
415,2017-11-23,3,2,1,10.97
415,2017-11-23,4,1,0,45.89
415,2017-11-23,5,1,0,3.9
415,2017-11-23,6,2,1,65
415,2017-11-23,8,1,0,51.13
415,2017-11-23,9,2,1,63.81
415,2017-11-23,10,2,1,1.12
415,2017-11-23,11,1,0,45.02
415,2017-11-23,12,1,0,0.88
415,2017-11-23,13,1,0,4.69
415,2017-11-23,14,1,0,4.78
415,2017-11-23,15,2,1,107.52
415,2017-11-23,16,2,1,4.67
415,2017-11-23,17,2,1,5.97
415,2017-11-23,18,1,0,48.01
415,2017-11-23,19,1,0,7.14
415,2017-11-23,20,2,1,55.31
415,2017-11-23,21,2,1,12.84
415,2017-11-23,22,1,0,44.47
415,2017-11-23,23,1,0,8.55
415,2017-11-23,24,2,1,59.38
415,2017-11-23,25,1,0,21.4
415,2017-11-23,26,1,0,7.25
415,2017-11-23,27,2,1,55.89
415,2017-11-23,28,2,1,14.99
415,2017-11-23,29,2,1,2.85
415,2017-11-23,35,2,1,135.31
415,2017-11-23,40,1,0,307.97
415,2017-11-23,41,2,1,132.85
415,2017-11-24,1,2,1,13.83
415,2017-11-24,2,1,0,27.3
415,2017-11-24,3,1,0,9.58
415,2017-11-24,4,2,1,55.51
415,2017-11-24,6,1,0,44.71
415,2017-11-24,7,1,0,10.42
415,2017-11-24,8,1,0,1.84
415,2017-11-24,9,1,0,4.78
415,2017-11-24,10,1,0,9.11
415,2017-11-24,11,2,1,165.34
415,2017-11-24,12,2,1,0.79
415,2017-11-24,13,1,0,34.33
415,2017-11-24,14,2,1,26.3
415,2017-11-24,15,2,1,1.31
415,2017-11-24,16,2,1,1.69
415,2017-11-24,17,2,1,1.98
415,2017-11-24,19,1,0,86.95
415,2017-11-24,21,1,0,33.43
415,2017-11-24,22,2,1,108.9
415,2017-11-24,23,2,1,5.67
415,2017-11-24,24,2,1,3.26
415,2017-11-24,25,2,1,1.57
415,2017-11-24,26,1,0,60.45
415,2017-11-24,27,1,0,3.18
415,2017-11-24,28,2,1,58.48
415,2017-11-24,31,2,1,66.46
415,2017-11-24,32,1,0,103.83
415,2017-11-24,33,2,1,30.89
415,2017-11-24,34,2,1,4.96
415,2017-11-24,35,1,0,39.71
415,2017-11-24,36,2,1,31.02
415,2017-11-24,38,2,1,38.24
415,2017-11-24,39,2,1,14.2
415,2017-11-24,41,1,0,118.62
415,2017-11-24,42,1,0,2.42
415,2017-11-24,44,2,1,110.51
415,2017-11-24,45,2,1,4.61
415,2017-11-24,46,1,0,73.14
415,2017-11-24,47,2,1,31.66
415,2017-11-24,51,1,0,28.03
415,2017-11-24,1,2,0,
415,2017-11-25,2,1,0,39.97
415,2017-11-25,3,1,0,1.42
415,2017-11-25,4,2,1,78.51
415,2017-11-25,5,2,1,3.42
415,2017-11-25,6,1,0,30.53
415,2017-11-25,7,2,1,28.37
415,2017-11-25,8,2,1,2.01
415,2017-11-25,10,2,1,30.11
415,2017-11-25,11,2,1,3.01
415,2017-11-25,12,2,1,0.74
415,2017-11-25,13,2,1,4.84
415,2017-11-25,14,1,0,114.17
415,2017-11-25,16,2,1,60.51
415,2017-11-25,17,2,1,4.12
415,2017-11-25,19,2,1,31.26
415,2017-11-25,21,2,1,30.62
415,2017-11-25,22,2,1,9.79
415,2017-11-25,24,2,1,35.2
415,2017-11-25,25,1,0,215.39
415,2017-11-25,26,2,1,34.25
415,2017-11-25,28,2,1,30.02
415,2017-11-25,29,2,1,3.8
415,2017-11-25,31,2,1,37.75
415,2017-11-25,32,2,1,5.96
415,2017-11-25,33,2,1,7.52
415,2017-11-25,34,2,1,4.28
415,2017-11-25,35,1,0,188.49
415,2017-11-25,37,2,1,58.48
415,2017-11-25,38,2,1,3.2
415,2017-11-25,39,2,1,6.77
415,2017-11-26,1,2,1,7.26
415,2017-11-26,2,2,1,4.76
415,2017-11-26,3,1,1,2.41
415,2017-11-26,4,2,0,50.48
415,2017-11-26,5,2,1,28.29
415,2017-11-26,7,1,0,42.16
415,2017-11-26,8,2,1,53.76
415,2017-11-26,9,1,0,13.87
415,2017-11-26,10,2,1,29.92
415,2017-11-26,12,1,1,26.18
415,2017-11-26,13,2,1,0.82
415,2017-11-26,14,1,0,4.32
415,2017-11-26,15,1,1,1.88
415,2017-11-26,16,2,1,0.23
415,2017-11-26,17,2,1,3.33
415,2017-11-26,18,1,1,0.58
415,2017-11-26,19,1,1,0.33
415,2017-11-26,20,2,0,63.67
415,2017-11-26,21,1,1,32.08
415,2017-11-26,22,1,1,5.36
415,2017-11-26,23,1,1,0.62
415,2017-11-26,24,2,1,3.78
415,2017-11-26,25,2,0,4.84
415,2017-11-26,26,1,1,0.73
415,2017-11-26,27,1,1,0.42
415,2017-11-26,28,1,1,0.76
415,2017-11-26,29,2,0,7.84
415,2017-11-26,30,1,1,0.12
415,2017-11-26,31,1,0,2.33
415,2017-11-26,32,2,1,0.32
415,2017-11-26,33,1,1,0.1
415,2017-11-26,34,1,1,0.88
415,2017-11-26,35,1,1,1.5
415,2017-11-26,36,2,0,37.42
415,2017-11-26,37,2,1,0.23
415,2017-11-26,38,1,1,0.67
415,2017-11-26,39,2,0,5.73
415,2017-11-26,40,1,1,1.12
415,2017-11-26,41,2,0,6.95
415,2017-11-26,42,2,1,0.55
415,2017-11-26,43,2,1,0.42
415,2017-11-26,44,1,1,7.93
415,2017-11-26,45,2,1,0.53
415,2017-11-26,46,2,1,2.06
415,2017-11-26,47,2,1,0.2
415,2017-11-26,48,1,1,3.45
415,2017-11-26,49,1,1,1.04
415,2017-11-26,50,1,1,1.42
415,2017-11-27,1,2,1,0.09
415,2017-11-27,2,1,0,11.44
415,2017-11-27,3,1,0,8.76
415,2017-11-27,4,2,1,44.44
415,2017-11-27,5,2,1,5.18
415,2017-11-27,6,2,1,3.1
415,2017-11-27,7,2,1,3
415,2017-11-27,9,2,1,21.96
415,2017-11-27,10,2,1,5.49
415,2017-11-27,14,2,1,67.38
415,2017-11-27,15,1,0,188.7
415,2017-11-27,16,2,1,24.24
415,2017-11-27,17,1,0,18.14
415,2017-11-27,18,1,0,4.3
415,2017-11-27,19,2,1,44.52
415,2017-11-27,20,2,1,1.72
415,2017-11-27,21,2,1,0.84
415,2017-11-27,22,1,0,42.67
415,2017-11-27,23,1,0,2.66
415,2017-11-27,25,1,0,25.93
415,2017-11-27,26,2,1,94.31
415,2017-11-27,27,2,1,4.49
415,2017-11-27,28,1,0,43.02
415,2017-11-27,29,1,0,5.26
415,2017-11-27,30,1,0,0.19
415,2017-11-27,31,2,1,67.19
415,2017-11-27,35,2,1,69.51
415,2017-11-28,2,2,1,30.36
415,2017-11-28,3,2,1,2.56
415,2017-11-28,4,1,0,63.74
415,2017-11-28,5,2,1,26.28
415,2017-11-28,6,1,0,19.36
415,2017-11-28,7,2,1,24.94
415,2017-11-28,8,2,1,0.87
415,2017-11-28,9,1,0,27.55
415,2017-11-28,10,2,1,24
415,2017-11-28,12,2,1,24.28
415,2017-11-28,15,1,0,92.12
415,2017-11-28,16,1,0,3.22
415,2017-11-28,17,2,1,93.89
415,2017-11-28,18,2,1,2.96
415,2017-11-28,19,2,1,1.53
415,2017-11-28,20,1,0,47.36
415,2017-11-28,22,1,0,24.48
415,2017-11-28,23,2,1,63.98
415,2017-11-28,29,1,0,122.61
415,2017-11-28,30,1,0,2.39
415,2017-11-28,31,2,1,152.9
415,2017-11-28,33,1,0,37.62
415,2017-11-28,37,2,1,115.43
415,2017-11-28,38,1,0,90.84
415,2017-11-28,39,2,1,25.8
415,2017-11-28,40,1,0,22.89
415,2017-11-28,42,2,1,43.97
415,2017-11-28,43,2,1,9.16
415,2017-11-28,44,1,0,54.59
415,2017-11-29,1,2,1,0.7
415,2017-11-29,2,2,1,1.51
415,2017-11-29,4,1,0,48.16
415,2017-11-29,5,2,1,48.21
415,2017-11-29,6,2,1,0.99
415,2017-11-29,8,2,1,30.3
415,2017-11-29,9,2,1,8.25
415,2017-11-29,11,1,0,114.4
415,2017-11-29,12,2,1,43.81
415,2017-11-29,14,2,1,22.9
415,2017-11-29,19,2,1,89.8
415,2017-11-29,21,2,1,22.06
415,2017-11-29,24,1,0,231.83
415,2017-11-29,25,1,0,1.16
415,2017-11-29,26,2,1,86.38
415,2017-11-29,30,2,1,69.76
415,2017-11-29,31,2,1,2.48
415,2017-11-29,32,1,0,107.22
415,2017-11-29,35,2,1,69.56
415,2017-11-29,38,1,0,103.26
415,2017-11-29,40,1,0,23.14
415,2017-11-29,42,2,1,127.88
415,2017-11-29,43,2,1,7.18
415,2017-11-29,46,1,0,93.85
415,2017-11-29,47,2,1,68.19
415,2017-11-29,48,2,1,2.26
416,2017-11-11,2,2,1,42.25
416,2017-11-11,3,1,1,2.78
416,2017-11-11,4,1,1,3.12
416,2017-11-11,5,1,1,0.35
416,2017-11-11,6,2,0,96.98
416,2017-11-11,7,2,1,42.54
416,2017-11-11,8,1,1,2.5
416,2017-11-11,9,1,1,4.33
416,2017-11-11,10,1,0,66.27
416,2017-11-11,11,1,1,41.65
416,2017-11-11,12,2,0,11.56
416,2017-11-11,13,1,1,41.45
416,2017-11-11,14,2,0,19.32
416,2017-11-11,15,2,1,2.76
416,2017-11-11,16,1,1,2.21
416,2017-11-11,17,2,1,3.3
416,2017-11-11,18,2,1,4.44
416,2017-11-11,19,2,1,1.56
416,2017-11-11,20,2,0,28.59
416,2017-11-11,21,2,1,44.78
416,2017-11-11,22,1,1,6.91
416,2017-11-11,23,1,1,6.51
416,2017-11-11,25,2,1,42.53
416,2017-11-11,26,2,1,1.47
416,2017-11-11,27,2,0,4.28
416,2017-11-11,28,2,1,3.41
416,2017-11-11,29,2,1,0.86
416,2017-11-11,30,1,1,2.01
416,2017-11-11,31,1,1,4.03
416,2017-11-11,32,1,1,10.3
416,2017-11-11,33,2,0,16.8
416,2017-11-11,34,1,1,1.14
416,2017-11-11,35,1,1,7.28
416,2017-11-11,36,2,0,24.48
416,2017-11-11,37,2,1,1
416,2017-11-11,38,2,1,6.33
416,2017-11-11,39,2,1,1.13
416,2017-11-11,40,1,1,3.91
416,2017-11-11,41,1,1,4.52
416,2017-11-11,42,1,1,0.65
416,2017-11-11,43,2,0,15.05
416,2017-11-11,44,2,0,2.25
416,2017-11-11,45,1,1,43.73
416,2017-11-11,46,1,1,1.95
416,2017-11-11,47,2,0,11.82
416,2017-11-11,48,1,1,1.67
416,2017-11-11,49,1,1,1.99
416,2017-11-11,52,1,1,2.94
416,2017-11-12,1,1,0,11.82
416,2017-11-12,2,2,1,46.21
416,2017-11-12,3,1,0,23.04
416,2017-11-12,4,1,0,7.79
416,2017-11-12,5,2,1,0.6
416,2017-11-12,6,2,1,4.79
416,2017-11-12,7,2,1,7.16
416,2017-11-12,8,1,0,22.7
416,2017-11-12,9,2,1,14.6
416,2017-11-12,10,1,1,16.4
416,2017-11-12,11,2,0,24.5
416,2017-11-12,12,2,0,1.96
416,2017-11-12,13,1,0,3.53
416,2017-11-12,14,2,1,84.69
416,2017-11-12,15,1,1,6.2
416,2017-11-12,16,2,1,0.49
416,2017-11-12,17,2,1,7.8
416,2017-11-12,18,2,0,15.15
416,2017-11-12,19,2,1,3.43
416,2017-11-12,20,1,1,13.01
416,2017-11-12,21,2,0,13.11
416,2017-11-12,22,2,1,2.9
416,2017-11-12,23,2,1,0.45
416,2017-11-12,24,2,0,10.7
416,2017-11-12,25,2,1,0.34
416,2017-11-12,26,2,1,3.39
416,2017-11-12,27,1,1,2.32
416,2017-11-12,28,2,0,15.58
416,2017-11-12,29,2,0,0.69
416,2017-11-12,30,1,1,9.89
416,2017-11-12,31,2,1,3.5
416,2017-11-12,32,2,1,8.12
416,2017-11-12,33,2,0,4.37
416,2017-11-12,34,2,1,3.31
416,2017-11-12,35,1,1,0.86
416,2017-11-12,36,2,1,17.32
416,2017-11-12,38,1,0,6.86
416,2017-11-12,39,1,1,2.2
416,2017-11-12,42,1,1,3.03
416,2017-11-12,43,1,1,7.17
416,2017-11-12,44,1,0,9.29
416,2017-11-12,45,1,1,0.87
416,2017-11-12,46,1,1,13.33
416,2017-11-12,49,1,1,1.22
416,2017-11-12,50,1,1,0.37
416,2017-11-13,1,1,0,6.55
416,2017-11-13,2,2,1,63.45
416,2017-11-13,3,2,1,4.77
416,2017-11-13,4,2,1,7.2
416,2017-11-13,5,2,1,5.35
416,2017-11-13,6,2,1,0.67
416,2017-11-13,7,1,0,96.34
416,2017-11-13,8,1,0,1.92
416,2017-11-13,9,1,1,92.3
416,2017-11-13,10,1,1,9.93
416,2017-11-13,11,1,0,12.57
416,2017-11-13,12,2,1,3.67
416,2017-11-13,13,1,1,28.99
416,2017-11-13,14,2,1,5.68
416,2017-11-13,15,2,0,8.48
416,2017-11-13,16,2,1,1.3
416,2017-11-13,17,2,1,7.57
416,2017-11-13,18,2,0,10.05
416,2017-11-13,19,1,1,2.27
416,2017-11-13,20,2,1,2.99
416,2017-11-13,21,1,1,2.6
416,2017-11-13,22,1,1,0.72
416,2017-11-13,23,2,0,43.75
416,2017-11-13,24,2,1,2.45
416,2017-11-13,25,1,1,2.31
416,2017-11-13,26,1,0,5.95
416,2017-11-13,27,2,1,0.69
416,2017-11-13,28,2,1,23.26
416,2017-11-13,29,2,0,14.56
416,2017-11-13,30,1,1,6.03
416,2017-11-13,31,2,0,10.76
416,2017-11-13,32,2,1,3.83
416,2017-11-13,33,2,0,17.86
416,2017-11-13,34,1,0,6.96
416,2017-11-13,35,1,0,24.96
416,2017-11-13,36,2,1,126.6
416,2017-11-13,37,1,0,20.54
416,2017-11-13,38,1,1,2.95
416,2017-11-13,39,2,1,28.36
416,2017-11-13,40,2,1,2.65
416,2017-11-13,41,1,1,10.76
416,2017-11-13,42,1,1,1.06
416,2017-11-13,43,2,1,14.71
416,2017-11-13,44,2,1,14.66
416,2017-11-13,47,1,0,29.21
416,2017-11-13,49,1,1,0.2
416,2017-11-13,52,1,1,0.06
416,2017-11-14,1,1,0,0.42
416,2017-11-14,2,2,1,44.14
416,2017-11-14,3,2,1,5.98
416,2017-11-14,4,2,1,1.52
416,2017-11-14,5,2,1,1.3
416,2017-11-14,6,1,1,1.29
416,2017-11-14,7,1,1,0.39
416,2017-11-14,8,1,0,14.77
416,2017-11-14,9,2,1,5.32
416,2017-11-14,10,1,1,4.26
416,2017-11-14,11,2,1,0.35
416,2017-11-14,12,2,1,10.91
416,2017-11-14,13,1,0,12.95
416,2017-11-14,14,2,1,4.76
416,2017-11-14,15,1,1,9.03
416,2017-11-14,16,2,0,10.2
416,2017-11-14,17,2,1,3.68
416,2017-11-14,18,2,1,1.28
416,2017-11-14,19,2,1,3.52
416,2017-11-14,20,2,1,0.59
416,2017-11-14,21,1,0,11.05
416,2017-11-14,22,2,1,0.21
416,2017-11-14,23,2,1,16.41
416,2017-11-14,24,1,1,14.76
416,2017-11-14,25,2,1,5.11
416,2017-11-14,26,1,1,0.56
416,2017-11-14,27,2,0,13.09
416,2017-11-14,28,1,1,1.81
416,2017-11-14,29,2,0,11.73
416,2017-11-14,30,2,1,4.06
416,2017-11-14,31,2,1,24.23
416,2017-11-14,32,2,1,14.73
416,2017-11-14,33,2,1,2.25
416,2017-11-14,34,1,0,44.27
416,2017-11-14,35,2,1,0.84
416,2017-11-14,36,2,1,2.99
416,2017-11-14,37,1,1,1.37
416,2017-11-14,38,2,0,12.59
416,2017-11-14,40,1,1,43.35
416,2017-11-14,41,1,1,2.25
416,2017-11-14,42,1,1,0.66
416,2017-11-14,43,1,1,6.71
416,2017-11-14,44,1,1,0.16
416,2017-11-14,45,1,0,20.4
416,2017-11-14,46,1,1,0.23
416,2017-11-14,47,1,1,2.94
416,2017-11-14,48,1,1,4.28
416,2017-11-14,49,1,1,3.14
416,2017-11-14,52,1,1,0.28
416,2017-11-15,1,1,1,12.99
416,2017-11-15,2,1,1,0.06
416,2017-11-15,3,1,1,0.49
416,2017-11-15,4,1,1,3.18
416,2017-11-15,5,2,1,3.32
416,2017-11-15,6,2,0,12.12
416,2017-11-15,7,1,1,0.65
416,2017-11-15,8,1,0,13.9
416,2017-11-15,9,2,1,0.02
416,2017-11-15,10,2,1,2.61
416,2017-11-15,11,2,1,5.15
416,2017-11-15,12,2,0,12.58
416,2017-11-15,13,1,1,0.43
416,2017-11-15,14,2,1,13.31
416,2017-11-15,15,1,1,12.83
416,2017-11-15,16,2,0,12.77
416,2017-11-15,17,2,1,0.45
416,2017-11-15,18,1,1,0.66
416,2017-11-15,19,2,1,11.87
416,2017-11-15,20,1,1,0.37
416,2017-11-15,21,2,0,16.06
416,2017-11-15,22,2,1,4.3
416,2017-11-15,23,1,1,8.83
416,2017-11-15,24,1,1,3.42
416,2017-11-15,25,2,1,3.04
416,2017-11-15,26,2,1,9.64
416,2017-11-15,27,1,1,1.22
416,2017-11-15,28,1,1,10.8
416,2017-11-15,29,1,1,1.78
416,2017-11-15,30,1,1,2.11
416,2017-11-15,31,2,0,80.92
416,2017-11-15,32,1,1,2.56
416,2017-11-15,33,2,1,0.63
416,2017-11-15,34,1,1,1.58
416,2017-11-15,35,1,1,1.39
416,2017-11-15,36,1,0,2.24
416,2017-11-15,37,2,1,3.69
416,2017-11-15,38,2,1,0.31
416,2017-11-15,39,2,1,6.65
416,2017-11-15,40,1,1,0.79
416,2017-11-15,41,2,1,1.21
416,2017-11-15,42,2,1,18.75
416,2017-11-15,43,2,1,2.07
416,2017-11-15,44,1,1,1.43
416,2017-11-15,45,2,0,19.8
416,2017-11-15,46,2,1,8.69
416,2017-11-15,47,2,1,6.13
416,2017-11-15,48,1,1,13.3
416,2017-11-15,53,1,1,2.62
416,2017-11-16,1,1,0,11.23
416,2017-11-16,2,2,1,44.53
416,2017-11-16,3,2,1,4.14
416,2017-11-16,4,2,1,4.9
416,2017-11-16,5,2,1,4.11
416,2017-11-16,6,1,1,2.64
416,2017-11-16,7,1,0,9.43
416,2017-11-16,8,2,1,1.68
416,2017-11-16,9,2,1,0.01
416,2017-11-16,10,2,0,24.24
416,2017-11-16,11,2,1,9.48
416,2017-11-16,12,2,1,3.06
416,2017-11-16,13,1,1,2.67
416,2017-11-16,14,2,0,9.21
416,2017-11-16,15,1,1,4.93
416,2017-11-16,16,2,1,1.05
416,2017-11-16,17,2,1,0.61
416,2017-11-16,18,2,1,2.81
416,2017-11-16,19,1,1,3.43
416,2017-11-16,20,2,1,1.02
416,2017-11-16,21,2,1,8.38
416,2017-11-16,22,2,0,17.21
416,2017-11-16,23,2,1,3.29
416,2017-11-16,24,2,1,1.33
416,2017-11-16,25,1,1,1.45
416,2017-11-16,26,1,1,4.75
416,2017-11-16,27,1,1,1.63
416,2017-11-16,28,2,0,26.99
416,2017-11-16,29,2,1,1.22
416,2017-11-16,30,1,1,2.49
416,2017-11-16,31,1,1,1.21
416,2017-11-16,32,1,1,1.9
416,2017-11-16,33,1,1,3.18
416,2017-11-16,34,2,0,12.34
416,2017-11-16,35,1,1,0.5
416,2017-11-16,36,2,1,13.99
416,2017-11-16,37,2,0,14.2
416,2017-11-16,38,2,1,2.4
416,2017-11-16,39,2,1,13.69
416,2017-11-16,40,1,1,16.59
416,2017-11-16,42,1,1,0.2
416,2017-11-16,44,1,1,2.13
416,2017-11-16,45,1,1,0.97
416,2017-11-16,47,1,1,9.24
416,2017-11-16,48,1,1,0.97
416,2017-11-16,50,1,1,3.4
416,2017-11-17,1,1,0,1.79
416,2017-11-17,2,2,1,41.39
416,2017-11-17,3,2,1,2.59
416,2017-11-17,4,2,1,0.95
416,2017-11-17,5,2,1,7.32
416,2017-11-17,6,1,1,20.01
416,2017-11-17,7,1,0,4.18
416,2017-11-17,8,1,1,3.39
416,2017-11-17,9,1,1,0.07
416,2017-11-17,10,2,1,3.73
416,2017-11-17,11,2,1,2.85
416,2017-11-17,12,2,0,27.55
416,2017-11-17,13,2,1,4.25
416,2017-11-17,14,1,1,8.86
416,2017-11-17,15,2,0,10.82
416,2017-11-17,16,2,1,13.28
416,2017-11-17,17,2,1,0.85
416,2017-11-17,18,1,1,13.88
416,2017-11-17,19,1,1,21.48
416,2017-11-17,20,2,0,9.51
416,2017-11-17,21,1,1,11.43
416,2017-11-17,22,2,1,0.14
416,2017-11-17,23,2,1,1.08
416,2017-11-17,24,2,1,2.07
416,2017-11-17,25,1,1,1.95
416,2017-11-17,26,2,1,15.72
416,2017-11-17,27,2,1,0.04
416,2017-11-17,28,2,1,0.86
416,2017-11-17,29,2,1,2.3
416,2017-11-17,30,1,1,0.58
416,2017-11-17,31,1,1,2.82
416,2017-11-17,32,2,0,19.95
416,2017-11-17,33,1,1,0.43
416,2017-11-17,34,2,1,14.88
416,2017-11-17,35,1,1,2.99
416,2017-11-17,36,2,1,16.39
416,2017-11-17,37,1,1,0.29
416,2017-11-17,38,2,1,13.32
416,2017-11-17,39,2,1,0.31
416,2017-11-17,40,1,1,1.22
416,2017-11-17,41,2,1,14.42
416,2017-11-17,43,1,1,1.83
416,2017-11-17,44,1,0,4.96
416,2017-11-17,45,1,1,0.96
416,2017-11-17,46,1,1,1.25
416,2017-11-17,48,1,1,1.38
416,2017-11-17,49,1,1,1.43
416,2017-11-17,52,1,1,2.17
416,2017-11-20,1,1,0,3.34
416,2017-11-20,2,1,0,0.55
416,2017-11-20,3,2,1,54.32
416,2017-11-20,4,2,1,0.6
416,2017-11-20,5,2,1,10.52
416,2017-11-20,6,1,0,50.07
416,2017-11-20,7,1,0,4.35
416,2017-11-20,8,2,1,58.05
416,2017-11-20,9,1,0,26.98
416,2017-11-20,10,2,1,30.22
416,2017-11-20,11,2,1,6.62
416,2017-11-20,12,2,1,0.67
416,2017-11-20,13,2,1,0.35
416,2017-11-20,15,1,0,35.81
416,2017-11-20,16,2,1,3.86
416,2017-11-20,17,2,0,10.96
416,2017-11-20,18,1,0,1.55
416,2017-11-20,19,2,1,30.85
416,2017-11-20,20,1,1,1.06
416,2017-11-20,21,1,1,2.6
416,2017-11-20,22,2,1,1
416,2017-11-20,23,2,0,4.66
416,2017-11-20,24,2,0,0.74
416,2017-11-20,25,2,1,28
416,2017-11-20,26,1,1,0.5
416,2017-11-20,27,2,0,12.67
416,2017-11-20,28,2,0,2.12
416,2017-11-20,29,2,1,32.65
416,2017-11-20,30,1,1,1.82
416,2017-11-20,31,2,0,11.83
416,2017-11-20,33,1,1,30.57
416,2017-11-20,34,2,0,0.8
416,2017-11-20,35,1,1,1.11
416,2017-11-20,36,2,1,0.23
416,2017-11-20,37,1,1,11.87
416,2017-11-20,38,1,1,0.57
416,2017-11-20,39,2,0,11.71
416,2017-11-20,40,1,1,27.4
416,2017-11-20,41,2,0,13.59
416,2017-11-20,42,2,1,1.41
416,2017-11-20,43,2,1,0.03
416,2017-11-20,45,1,1,5.92
416,2017-11-20,48,1,1,3.24
416,2017-11-20,50,1,1,2.7
416,2017-11-21,2,2,1,39.98
416,2017-11-21,3,2,1,5.21
416,2017-11-21,4,2,1,5.78
416,2017-11-21,5,2,1,4.42
416,2017-11-21,7,1,0,36.16
416,2017-11-21,8,2,1,2.48
416,2017-11-21,9,2,1,3.37
416,2017-11-21,10,2,1,3.44
416,2017-11-21,11,2,0,14.17
416,2017-11-21,12,2,1,14.3
416,2017-11-21,14,1,0,66.16
416,2017-11-21,16,2,1,92.94
416,2017-11-21,17,2,1,14.28
416,2017-11-21,18,1,0,84.41
416,2017-11-21,20,2,1,59.26
416,2017-11-21,21,2,1,5.63
416,2017-11-21,22,1,0,60.93
416,2017-11-21,23,2,1,30.26
416,2017-11-21,24,1,0,23.54
416,2017-11-21,25,1,1,11.67
416,2017-11-21,26,2,1,3.74
416,2017-11-21,27,2,1,4.43
416,2017-11-21,28,2,0,7.16
416,2017-11-21,29,1,1,3.32
416,2017-11-21,31,2,1,38.68
416,2017-11-21,32,1,0,64.4
416,2017-11-21,33,2,1,28.83
416,2017-11-21,34,1,0,15.33
416,2017-11-21,35,1,1,1.12
416,2017-11-21,36,1,1,5.28
416,2017-11-21,37,1,1,0.09
416,2017-11-21,38,1,1,1.94
416,2017-11-21,39,2,0,7.17
416,2017-11-21,40,2,1,0.43
416,2017-11-21,41,2,1,8.57
416,2017-11-21,44,1,1,1.11
416,2017-11-21,51,1,0,60.25
416,2017-11-22,2,2,1,35.92
416,2017-11-22,3,2,1,3.29
416,2017-11-22,4,2,1,0.26
416,2017-11-22,5,2,1,6.09
416,2017-11-22,6,1,1,9.72
416,2017-11-22,7,1,0,114.34
416,2017-11-22,9,2,1,59.63
416,2017-11-22,10,2,1,1.11
416,2017-11-22,11,1,1,0.2
416,2017-11-22,12,1,1,1.24
416,2017-11-22,13,2,1,2.69
416,2017-11-22,14,1,0,9.37
416,2017-11-22,15,2,1,2.26
416,2017-11-22,16,2,1,6.99
416,2017-11-22,17,2,1,0.93
416,2017-11-22,18,1,0,50.54
416,2017-11-22,19,2,1,27.11
416,2017-11-22,20,1,0,11.87
416,2017-11-22,21,1,1,4.85
416,2017-11-22,22,1,1,2.38
416,2017-11-22,23,2,1,0.29
416,2017-11-22,24,2,1,1.55
416,2017-11-22,25,2,0,5.65
416,2017-11-22,26,1,1,7.88
416,2017-11-22,27,2,1,9.5
416,2017-11-22,28,1,0,24.6
416,2017-11-22,29,2,1,26.24
416,2017-11-22,30,2,1,0.64
416,2017-11-22,31,2,1,8.03
416,2017-11-22,32,2,1,1.88
416,2017-11-22,33,1,0,6.6
416,2017-11-22,34,1,1,3.68
416,2017-11-22,35,2,0,9.98
416,2017-11-22,36,2,1,1.19
416,2017-11-22,37,1,1,1.4
416,2017-11-22,38,1,0,7.45
416,2017-11-22,39,2,1,2.11
416,2017-11-22,40,2,1,0.89
416,2017-11-22,41,1,0,2.38
416,2017-11-22,42,2,1,39.88
416,2017-11-22,43,1,0,34.51
416,2017-11-22,46,1,1,6.3
416,2017-11-22,48,1,1,0.92
416,2017-11-22,51,1,1,2.47
416,2017-11-23,1,2,1,7.94
416,2017-11-23,2,1,0,20.17
416,2017-11-23,3,2,1,29.06
416,2017-11-23,4,2,1,1.13
416,2017-11-23,5,2,1,3.92
416,2017-11-23,6,2,1,5.25
416,2017-11-23,7,1,0,58.96
416,2017-11-23,8,2,1,28.78
416,2017-11-23,9,2,1,3.08
416,2017-11-23,10,2,1,3.55
416,2017-11-23,11,1,1,7.33
416,2017-11-23,12,1,0,10.94
416,2017-11-23,13,2,1,5.78
416,2017-11-23,14,1,1,1.37
416,2017-11-23,15,1,0,5.45
416,2017-11-23,16,1,1,2.67
416,2017-11-23,18,2,1,36.89
416,2017-11-23,19,2,1,2.38
416,2017-11-23,20,2,1,7.96
416,2017-11-23,21,2,1,7.25
416,2017-11-23,22,2,1,2.37
416,2017-11-23,23,1,0,114.23
416,2017-11-23,24,2,1,29.15
416,2017-11-23,25,2,1,4.5
416,2017-11-23,26,2,1,6.22
416,2017-11-23,27,2,1,0.81
416,2017-11-23,28,1,0,13.24
416,2017-11-23,29,1,1,3.86
416,2017-11-23,30,2,0,13.87
416,2017-11-23,31,1,1,1.38
416,2017-11-23,32,1,1,1.09
416,2017-11-23,33,2,1,6.93
416,2017-11-23,34,1,1,0.67
416,2017-11-23,35,2,0,14.89
416,2017-11-23,36,1,1,4.9
416,2017-11-23,37,2,1,2.19
416,2017-11-23,38,1,0,11.51
416,2017-11-23,39,2,1,5.32
416,2017-11-23,40,2,0,3.64
416,2017-11-23,41,1,0,0.22
416,2017-11-23,42,1,0,0.8
416,2017-11-23,43,1,0,4.64
416,2017-11-23,48,1,0,2.39
416,2017-11-23,51,1,1,111.47
416,2017-11-24,1,1,0,7.34
416,2017-11-24,2,2,1,26.49
416,2017-11-24,3,2,1,6.5
416,2017-11-24,4,1,0,31.46
416,2017-11-24,5,1,1,0.34
416,2017-11-24,6,1,1,5.04
416,2017-11-24,7,1,1,1.45
416,2017-11-24,8,2,0,8.46
416,2017-11-24,9,2,1,0.36
416,2017-11-24,10,2,1,0.05
416,2017-11-24,11,2,1,13.2
416,2017-11-24,12,1,0,11.61
416,2017-11-24,13,1,1,2.25
416,2017-11-24,14,1,1,1.78
416,2017-11-24,15,2,0,9.24
416,2017-11-24,16,2,1,1.32
416,2017-11-24,17,2,1,2.57
416,2017-11-24,18,1,1,3.57
416,2017-11-24,19,2,0,15.82
416,2017-11-24,20,2,1,4.44
416,2017-11-24,21,1,1,0.29
416,2017-11-24,22,1,1,0.53
416,2017-11-24,23,2,1,7.15
416,2017-11-24,24,2,1,2.06
416,2017-11-24,25,2,1,4.05
416,2017-11-24,26,1,0,5.7
416,2017-11-24,27,2,0,4.72
416,2017-11-24,28,1,0,4.41
416,2017-11-24,29,2,1,55.72
416,2017-11-24,30,2,1,0.6
416,2017-11-24,31,2,1,7.47
416,2017-11-24,32,2,1,3.47
416,2017-11-24,33,1,1,4.59
416,2017-11-24,34,1,1,0.92
416,2017-11-24,35,2,1,4.65
416,2017-11-24,36,1,0,7.82
416,2017-11-24,37,1,1,0.89
416,2017-11-24,38,2,1,6.94
416,2017-11-24,39,2,0,8.35
416,2017-11-24,40,1,1,3.97
416,2017-11-24,41,2,1,1.33
416,2017-11-24,42,2,1,3.68
416,2017-11-24,43,2,0,5.6
416,2017-11-24,48,1,1,1
416,2017-11-24,49,1,1,2.75
416,2017-11-24,51,1,1,2.03
416,2017-11-25,1,1,0,3.24
416,2017-11-25,2,2,1,0.01
416,2017-11-25,3,1,1,2.5
416,2017-11-25,4,2,1,0.82
416,2017-11-25,5,1,1,2.63
416,2017-11-25,6,2,0,2.92
416,2017-11-25,7,2,1,40.31
416,2017-11-25,8,1,0,0
416,2017-11-25,9,2,0,47.27
416,2017-11-25,10,1,1,26.31
416,2017-11-25,11,2,0,11.83
416,2017-11-25,12,2,0,0.66
416,2017-11-25,13,2,1,66.48
416,2017-11-25,14,2,0,6.5
416,2017-11-25,15,2,1,4.63
416,2017-11-25,16,1,1,2.69
416,2017-11-25,17,1,1,1.73
416,2017-11-25,18,1,1,3.78
416,2017-11-25,19,2,0,14.05
416,2017-11-25,20,1,1,6.41
416,2017-11-25,21,2,0,10.49
416,2017-11-25,22,2,1,0.94
416,2017-11-25,23,2,1,0.28
416,2017-11-25,24,1,1,0.64
416,2017-11-25,25,1,1,2.76
416,2017-11-25,26,1,1,3.95
416,2017-11-25,27,1,1,2.72
416,2017-11-25,28,1,1,2.38
416,2017-11-25,29,2,0,67.83
416,2017-11-25,30,1,1,26.35
416,2017-11-25,31,1,1,0.91
416,2017-11-25,32,2,0,14.56
416,2017-11-25,33,2,1,0.75
416,2017-11-25,34,1,1,0.56
416,2017-11-25,35,2,0,6.4
416,2017-11-25,36,2,1,2.22
416,2017-11-25,37,1,0,9.66
416,2017-11-25,38,2,1,4.88
416,2017-11-25,39,2,1,3.78
416,2017-11-25,40,1,0,5.75
416,2017-11-25,41,1,1,0.34
416,2017-11-25,42,2,0,9.78
416,2017-11-25,43,1,1,0.24
416,2017-11-25,44,2,0,8.91
416,2017-11-25,45,2,1,1.15
416,2017-11-25,46,2,1,1.32
416,2017-11-25,47,1,1,0.61
416,2017-11-25,48,1,0,4.33
416,2017-11-25,53,1,1,0.53
416,2017-11-26,1,1,1,7.81
416,2017-11-26,2,2,0,4.28
416,2017-11-26,3,1,1,0.43
416,2017-11-26,4,2,1,0.33
416,2017-11-26,5,2,1,1.99
416,2017-11-26,6,1,1,2.18
416,2017-11-26,7,2,0,9.76
416,2017-11-26,8,2,1,8.05
416,2017-11-26,9,2,0,5.4
416,2017-11-26,10,1,1,1.57
416,2017-11-26,11,2,0,10.72
416,2017-11-26,12,2,1,3.31
416,2017-11-26,13,2,1,0.5
416,2017-11-26,14,1,1,0.78
416,2017-11-26,15,2,0,32.66
416,2017-11-26,16,2,1,28.02
416,2017-11-26,17,2,0,9.67
416,2017-11-26,18,1,1,0.57
416,2017-11-26,19,1,1,5.53
416,2017-11-26,20,2,1,2.49
416,2017-11-26,21,2,0,42.44
416,2017-11-26,22,2,1,26.57
416,2017-11-26,23,2,1,0.03
416,2017-11-26,24,2,0,10.35
416,2017-11-26,25,1,1,0.93
416,2017-11-26,26,1,1,2.01
416,2017-11-26,27,2,0,3.03
416,2017-11-26,28,1,1,3.14
416,2017-11-26,29,1,1,0.64
416,2017-11-26,30,1,1,1.03
416,2017-11-26,31,1,1,1.43
416,2017-11-26,32,1,1,0.72
416,2017-11-26,33,1,1,2.13
416,2017-11-26,34,2,0,75.38
416,2017-11-26,35,2,1,0.11
416,2017-11-26,36,2,1,6.06
416,2017-11-26,37,2,1,4.03
416,2017-11-26,38,2,0,12.03
416,2017-11-26,39,1,1,0.16
416,2017-11-26,40,1,1,0.11
416,2017-11-26,41,1,1,0.2
416,2017-11-26,42,2,0,6.53
416,2017-11-26,43,2,1,1.92
416,2017-11-26,49,1,1,0.12
416,2017-11-26,50,1,1,2
416,2017-11-27,1,2,1,9.97
416,2017-11-27,3,2,1,25.67
416,2017-11-27,4,1,0,57.99
416,2017-11-27,6,2,1,50.07
416,2017-11-27,7,1,0,41.17
416,2017-11-27,8,1,1,24.41
416,2017-11-27,9,1,1,1.44
416,2017-11-27,10,2,0,8.94
416,2017-11-27,11,1,1,2.65
416,2017-11-27,12,1,1,4.74
416,2017-11-27,13,2,1,5.06
416,2017-11-27,14,1,0,16.1
416,2017-11-27,15,1,1,21.25
416,2017-11-27,16,2,1,3.06
416,2017-11-27,17,1,0,25.29
416,2017-11-27,18,2,1,27.84
416,2017-11-27,21,1,0,64.24
416,2017-11-27,22,1,0,0.67
416,2017-11-27,23,2,1,88.32
416,2017-11-27,25,1,0,41.86
416,2017-11-27,26,1,0,3.37
416,2017-11-27,27,2,1,72.53
416,2017-11-27,28,2,1,9.77
416,2017-11-27,29,1,0,5.63
416,2017-11-27,30,1,1,0.15
416,2017-11-27,31,1,1,3.36
416,2017-11-27,32,1,1,1.08
416,2017-11-27,33,1,0,5.29
416,2017-11-27,34,2,0,2.07
416,2017-11-27,35,1,1,21.68
416,2017-11-27,36,2,1,3.73
416,2017-11-27,37,2,0,26.79
416,2017-11-27,38,2,1,25.14
416,2017-11-27,39,1,0,19.07
416,2017-11-27,40,1,0,1.31
416,2017-11-27,41,2,1,43.4
416,2017-11-27,42,1,0,14.77
416,2017-11-27,43,1,0,5.7
416,2017-11-27,44,2,1,0.25
416,2017-11-27,47,2,1,1.73
416,2017-11-27,49,2,1,6.09
416,2017-11-27,52,2,0,3.28
416,2017-11-28,1,2,1,9.64
416,2017-11-28,2,2,1,2.85
416,2017-11-28,3,1,0,36.67
416,2017-11-28,5,2,1,49.39
416,2017-11-28,6,1,0,9.52
416,2017-11-28,7,2,1,4.14
416,2017-11-28,8,2,1,2.34
416,2017-11-28,9,2,1,4.46
416,2017-11-28,10,2,1,5.49
416,2017-11-28,11,1,1,2.15
416,2017-11-28,12,2,1,2.8
416,2017-11-28,13,2,1,3.95
416,2017-11-28,14,2,1,0.14
416,2017-11-28,15,2,0,2.85
416,2017-11-28,16,1,1,0.15
416,2017-11-28,17,2,0,9.06
416,2017-11-28,18,2,1,9.23
416,2017-11-28,21,2,1,45.84
416,2017-11-28,22,1,0,8.72
416,2017-11-28,23,2,1,0.83
416,2017-11-28,24,1,0,3.95
416,2017-11-28,25,2,1,0.4
416,2017-11-28,26,2,1,1.41
416,2017-11-28,27,1,1,0.1
416,2017-11-28,28,1,1,2.21
416,2017-11-28,29,2,1,4.72
416,2017-11-28,30,2,0,6.56
416,2017-11-28,31,1,1,0.14
416,2017-11-28,32,1,1,0.73
416,2017-11-28,33,2,0,5.28
416,2017-11-28,34,2,1,0.36
416,2017-11-28,35,1,1,1.03
416,2017-11-28,36,1,0,25.11
416,2017-11-28,37,2,1,1.61
416,2017-11-28,38,1,1,0.06
416,2017-11-28,39,2,0,9.6
416,2017-11-28,40,2,1,2.93
416,2017-11-28,41,1,0,9.76
416,2017-11-28,42,1,1,0.06
416,2017-11-28,43,2,0,5.99
416,2017-11-28,47,1,1,1.65
416,2017-11-28,50,1,1,1.13
416,2017-11-29,1,1,0,6.6
416,2017-11-29,2,2,1,22.76
416,2017-11-29,3,2,1,2.78
416,2017-11-29,4,2,1,8.54
416,2017-11-29,5,2,1,2.57
416,2017-11-29,6,1,0,63.77
416,2017-11-29,7,1,0,3.72
416,2017-11-29,8,1,0,7.95
416,2017-11-29,10,2,1,86.51
416,2017-11-29,11,1,1,1.41
416,2017-11-29,12,2,1,0.06
416,2017-11-29,13,2,1,1.39
416,2017-11-29,14,1,0,80.05
416,2017-11-29,15,1,1,23.34
416,2017-11-29,16,1,0,20.92
416,2017-11-29,17,1,1,21.3
416,2017-11-29,19,1,0,34.99
416,2017-11-29,20,1,0,1.34
416,2017-11-29,21,1,1,4.67
416,2017-11-29,22,2,1,0.3
416,2017-11-29,23,2,1,1.65
416,2017-11-29,24,1,0,8.73
416,2017-11-29,25,1,0,0.2
416,2017-11-29,26,1,0,2.57
416,2017-11-29,27,2,1,51.64
416,2017-11-29,28,2,1,7.56
416,2017-11-29,29,2,1,0.11
416,2017-11-29,30,1,0,54.71
416,2017-11-29,31,1,1,21.71
416,2017-11-29,32,1,0,7.84
416,2017-11-29,33,1,1,0.34
416,2017-11-29,34,1,1,0.1
416,2017-11-29,35,2,1,0.03
416,2017-11-29,36,2,1,9.85
416,2017-11-29,37,1,1,1.98
416,2017-11-29,38,1,0,73.7
416,2017-11-29,39,2,1,27.6
416,2017-11-29,40,2,0,4.7
416,2017-11-29,41,2,1,1.96
416,2017-11-29,42,2,1,9.36
416,2017-11-29,43,1,1,1.31
416,2017-11-29,44,1,0,4.88
416,2017-11-29,46,2,1,31.11
416,2017-11-29,47,2,1,3.19
416,2017-11-29,48,2,0,56.49
416,2017-11-29,49,2,1,30.32
416,2017-11-29,50,2,1,6.93
418,2017-11-11,1,1,0,16.4
418,2017-11-11,2,2,1,42.59
418,2017-11-11,3,2,1,1.33
418,2017-11-11,4,2,1,13.79
418,2017-11-11,5,2,1,7.93
418,2017-11-11,6,2,1,4.2
418,2017-11-11,7,1,1,22.91
418,2017-11-11,8,1,0,14.39
418,2017-11-11,9,1,1,0.12
418,2017-11-11,10,1,1,9.48
418,2017-11-11,11,1,1,0.02
418,2017-11-11,12,2,0,29.27
418,2017-11-11,13,1,1,0.14
418,2017-11-11,14,2,0,12.92
418,2017-11-11,15,2,1,42.94
418,2017-11-11,16,2,1,13.3
418,2017-11-11,18,2,0,70.34
418,2017-11-11,19,1,0,2.93
418,2017-11-11,20,2,1,133.07
418,2017-11-11,21,1,0,21.99
418,2017-11-11,22,1,0,2.28
418,2017-11-11,23,2,1,87.2
418,2017-11-11,24,2,0,18.22
418,2017-11-11,25,1,0,6
418,2017-11-11,26,1,0,12.71
418,2017-11-11,27,2,1,131.2
418,2017-11-11,28,2,1,8.32
418,2017-11-11,29,2,1,4.85
418,2017-11-11,30,1,0,22.68
418,2017-11-11,31,2,1,17.76
418,2017-11-11,32,2,0,42.13
418,2017-11-11,33,2,1,46.23
418,2017-11-11,34,1,0,19.15
418,2017-11-11,35,1,0,16.44
418,2017-11-11,36,2,1,83.29
418,2017-11-11,37,1,0,10.82
418,2017-11-11,38,1,1,2.24
418,2017-11-11,39,2,1,8.38
418,2017-11-11,40,2,0,58.36
418,2017-11-11,41,1,1,41.48
418,2017-11-11,43,2,1,52.43
418,2017-11-11,44,2,1,7.49
418,2017-11-11,47,1,1,4.91
418,2017-11-11,49,1,1,9.18
418,2017-11-11,52,1,1,1.06
418,2017-11-12,1,1,0,4.79
418,2017-11-12,2,2,1,4.11
418,2017-11-12,3,2,1,4.66
418,2017-11-12,4,2,1,5.33
418,2017-11-12,5,2,1,8.83
418,2017-11-12,6,2,1,2.98
418,2017-11-12,7,1,1,2.05
418,2017-11-12,8,1,1,8.7
418,2017-11-12,9,1,1,3.41
418,2017-11-12,10,1,1,8.35
418,2017-11-12,11,1,1,1.55
418,2017-11-12,12,2,0,117.9
418,2017-11-12,13,1,1,54.39
418,2017-11-12,14,2,1,7.64
418,2017-11-12,15,2,1,29.32
418,2017-11-12,16,2,1,4.08
418,2017-11-12,17,2,1,8.07
418,2017-11-12,18,2,1,1.35
418,2017-11-12,19,1,1,1.03
418,2017-11-12,20,2,0,15.91
418,2017-11-12,21,1,0,28.59
418,2017-11-12,22,1,1,42.51
418,2017-11-12,23,2,1,14.56
418,2017-11-12,24,2,1,6.47
418,2017-11-12,25,1,1,0.35
418,2017-11-12,26,2,0,16.25
418,2017-11-12,27,2,1,45.01
418,2017-11-12,28,2,1,2.4
418,2017-11-12,29,2,1,12.24
418,2017-11-12,30,1,1,2.63
418,2017-11-12,31,1,0,17.28
418,2017-11-12,32,1,1,12.62
418,2017-11-12,33,2,1,8.11
418,2017-11-12,34,1,1,23.89
418,2017-11-12,35,2,1,24.1
418,2017-11-12,36,2,1,2.23
418,2017-11-12,37,1,1,1.18
418,2017-11-12,38,2,0,12.87
418,2017-11-12,39,2,1,3.12
418,2017-11-12,40,1,1,3.66
418,2017-11-12,41,1,1,6.35
418,2017-11-12,42,2,0,28.35
418,2017-11-12,43,1,1,1.45
418,2017-11-12,44,2,0,8.91
418,2017-11-12,50,1,1,3.94
418,2017-11-14,1,1,0,29.71
418,2017-11-14,2,2,1,63.11
418,2017-11-14,3,2,1,29.18
418,2017-11-14,4,2,1,6.57
418,2017-11-14,6,2,1,57.63
418,2017-11-14,7,1,0,189.39
418,2017-11-14,8,1,0,2
418,2017-11-14,9,1,0,17.27
418,2017-11-14,11,1,0,44.4
418,2017-11-14,12,2,1,216.51
418,2017-11-14,13,1,1,12.12
418,2017-11-14,14,2,1,16.09
418,2017-11-14,15,2,1,29.31
418,2017-11-14,16,2,1,13.25
418,2017-11-14,18,2,1,41.56
418,2017-11-14,19,1,0,195.82
418,2017-11-14,20,2,1,70.24
418,2017-11-14,21,1,1,20.91
418,2017-11-14,22,1,1,7.96
418,2017-11-14,23,2,1,5.78
418,2017-11-14,24,2,1,19.32
418,2017-11-14,25,1,0,138.32
418,2017-11-14,26,1,1,61.24
418,2017-11-14,28,2,1,41.25
418,2017-11-14,29,2,1,8.92
418,2017-11-14,30,1,0,111.58
418,2017-11-14,31,2,1,41.9
418,2017-11-14,32,2,1,11.71
418,2017-11-14,33,2,1,0.39
418,2017-11-14,34,1,1,13.2
418,2017-11-14,35,1,1,27.76
418,2017-11-14,36,2,1,11.52
418,2017-11-14,38,1,0,187.5
418,2017-11-14,39,2,1,1.11
418,2017-11-14,42,1,0,103.66
418,2017-11-14,43,2,1,128.02
418,2017-11-14,44,2,1,25.75
418,2017-11-14,47,1,0,79.99
418,2017-11-14,49,1,1,64.24
418,2017-11-14,52,1,1,2.34
418,2017-11-15,1,1,0,2.67
418,2017-11-15,2,2,1,61.49
418,2017-11-15,3,2,1,0.06
418,2017-11-15,4,2,1,8.21
418,2017-11-15,5,2,1,28.47
418,2017-11-15,6,2,1,0.84
418,2017-11-15,7,1,1,1.16
418,2017-11-15,8,1,1,18.31
418,2017-11-15,9,1,1,2.38
418,2017-11-15,10,1,1,0.21
418,2017-11-15,11,1,0,12.87
418,2017-11-15,12,2,1,4.53
418,2017-11-15,13,1,0,20.73
418,2017-11-15,14,2,1,70.21
418,2017-11-15,15,2,0,14.27
418,2017-11-15,16,2,1,6.02
418,2017-11-15,17,2,1,10.77
418,2017-11-15,18,2,1,29.08
418,2017-11-15,19,1,1,3.6
418,2017-11-15,20,2,1,3.32
418,2017-11-15,21,1,1,5.68
418,2017-11-15,22,1,1,1.68
418,2017-11-15,23,2,0,10.45
418,2017-11-15,24,2,1,29.07
418,2017-11-15,25,1,0,8.96
418,2017-11-15,26,1,1,0.16
418,2017-11-15,27,2,1,6.19
418,2017-11-15,28,2,1,13.91
418,2017-11-15,29,2,1,1.26
418,2017-11-15,30,1,1,9.12
418,2017-11-15,31,2,0,18
418,2017-11-15,32,2,1,27.49
418,2017-11-15,33,2,1,2.92
418,2017-11-15,34,1,0,15.46
418,2017-11-15,36,2,1,48.56
418,2017-11-15,37,1,1,18.27
418,2017-11-15,38,1,1,6.36
418,2017-11-15,39,2,0,48.89
418,2017-11-15,40,2,1,44.36
418,2017-11-15,41,1,0,11.39
418,2017-11-15,42,1,1,5.08
418,2017-11-15,43,2,0,13.37
418,2017-11-15,44,2,1,13.76
418,2017-11-15,47,1,1,7.77
418,2017-11-15,49,1,1,6.03
418,2017-11-15,52,1,1,1.84
418,2017-11-16,1,1,0,29.66
418,2017-11-16,2,2,1,54.49
418,2017-11-16,3,2,1,4.47
418,2017-11-16,4,2,1,4.83
418,2017-11-16,5,2,1,5.99
418,2017-11-16,6,2,1,0.3
418,2017-11-16,8,1,0,67.8
418,2017-11-16,9,1,1,2.91
418,2017-11-16,10,1,1,5.84
418,2017-11-16,11,1,1,14.72
418,2017-11-16,12,2,0,10.42
418,2017-11-16,13,1,1,16.74
418,2017-11-16,14,2,0,7.24
418,2017-11-16,15,2,1,11.36
418,2017-11-16,16,2,1,6.43
418,2017-11-16,17,2,1,3.35
418,2017-11-16,18,2,1,0.23
418,2017-11-16,19,1,0,72.82
418,2017-11-16,20,2,1,9.58
418,2017-11-16,21,1,1,0.22
418,2017-11-16,22,1,1,5.88
418,2017-11-16,23,2,0,19.48
418,2017-11-16,24,2,1,2.9
418,2017-11-16,25,1,1,22.45
418,2017-11-16,26,1,1,0.23
418,2017-11-16,27,2,0,29.11
418,2017-11-16,28,2,1,16.86
418,2017-11-16,29,2,1,8.53
418,2017-11-16,30,1,0,23.35
418,2017-11-16,31,2,0,5
418,2017-11-16,32,2,1,44.37
418,2017-11-16,33,2,1,8.41
418,2017-11-16,34,1,0,44.42
418,2017-11-16,35,1,1,3.66
418,2017-11-16,36,2,1,4.49
418,2017-11-16,37,1,0,22.75
418,2017-11-16,38,1,1,1.32
418,2017-11-16,39,2,1,4.56
418,2017-11-16,40,2,1,4.56
418,2017-11-16,42,1,1,43.83
